time_idx,accelerometerAccelerationX(G),accelerometerAccelerationY(G),accelerometerAccelerationZ(G)
20000,-0.95245361328125,-0.0740966796875,-0.3324127197265625
20001,-0.9554901123046876,-0.0718994140625,-0.33367919921875
20002,-0.953277587890625,-0.0813751220703125,-0.333343505859375
20003,-0.9452972412109376,-0.0827484130859375,-0.3195343017578125
20004,-0.9369964599609376,-0.079193115234375,-0.31597900390625
20005,-0.934417724609375,-0.0775909423828125,-0.3199310302734375
20006,-0.93585205078125,-0.077423095703125,-0.324249267578125
20007,-0.9365234375,-0.0744476318359375,-0.3203125
20008,-0.9333038330078124,-0.0756072998046875,-0.321197509765625
20009,-0.9417572021484376,-0.085052490234375,-0.3280029296875
20010,-0.9352569580078124,-0.08673095703125,-0.33612060546875
20011,-0.936737060546875,-0.0833740234375,-0.339752197265625
20012,-0.94427490234375,-0.078399658203125,-0.339874267578125
20013,-0.946044921875,-0.0741729736328125,-0.33563232421875
20014,-0.950836181640625,-0.0685272216796875,-0.328216552734375
20015,-0.9539031982421876,-0.0669403076171875,-0.3259735107421875
20016,-0.94976806640625,-0.0676422119140625,-0.32080078125
20017,-0.9535369873046876,-0.07171630859375,-0.3124237060546875
20018,-0.947265625,-0.078460693359375,-0.3094940185546875
20019,-0.9383544921875,-0.0757293701171875,-0.31280517578125
20020,-0.9382476806640624,-0.0703277587890625,-0.3202667236328125
20021,-0.94110107421875,-0.069244384765625,-0.3231964111328125
20022,-0.944000244140625,-0.068023681640625,-0.325225830078125
20023,-0.946197509765625,-0.06427001953125,-0.3237762451171875
20024,-0.943359375,-0.0655364990234375,-0.3248443603515625
20025,-0.94244384765625,-0.0698699951171875,-0.327850341796875
20026,-0.9414825439453124,-0.0816192626953125,-0.3300628662109375
20027,-0.829193115234375,-0.0635528564453125,-0.240997314453125
20028,-0.58502197265625,0.0079345703125,-0.514495849609375
20029,-0.7635955810546875,-0.059295654296875,-0.555328369140625
20030,-0.8867950439453125,-0.053924560546875,-0.3796539306640625
20031,-1.2762451171875,-0.1692962646484375,-0.3482208251953125
20032,-1.192337036132812,-0.1555023193359375,-0.2626495361328125
20033,-1.002151489257812,-0.0655975341796875,-0.300750732421875
20034,-1.007781982421875,-0.084869384765625,-0.393768310546875
20035,-0.969482421875,-0.1144561767578125,-0.4320068359375
20036,-0.9301605224609376,-0.107086181640625,-0.4370269775390625
20037,-0.8584136962890625,-0.10791015625,-0.3632659912109375
20038,-0.8356475830078125,-0.09466552734375,-0.3268585205078125
20039,-0.83355712890625,-0.1051177978515625,-0.3178558349609375
20040,-0.8594512939453125,-0.1272125244140625,-0.333038330078125
20041,-0.905120849609375,-0.129119873046875,-0.3459930419921875
20042,-0.9431915283203124,-0.122467041015625,-0.359954833984375
20043,-0.968841552734375,-0.0937652587890625,-0.359649658203125
20044,-0.988525390625,-0.078399658203125,-0.3678131103515625
20045,-0.9848175048828124,-0.0714874267578125,-0.36334228515625
20046,-0.9630126953125,-0.0615081787109375,-0.3347015380859375
20047,-0.9379119873046876,-0.077423095703125,-0.32916259765625
20048,-0.9066162109375,-0.08868408203125,-0.3257293701171875
20049,-0.8962249755859375,-0.0921783447265625,-0.32611083984375
20050,-0.905303955078125,-0.0995941162109375,-0.342132568359375
20051,-0.921234130859375,-0.105377197265625,-0.34600830078125
20052,-0.934326171875,-0.0909576416015625,-0.346038818359375
20053,-0.9412841796875,-0.0765838623046875,-0.36456298828125
20054,-0.944854736328125,-0.07769775390625,-0.365936279296875
20055,-0.9400177001953124,-0.07513427734375,-0.3546905517578125
20056,-0.94976806640625,-0.0742950439453125,-0.3563995361328125
20057,-0.9549713134765624,-0.0804443359375,-0.3412017822265625
20058,-0.4579925537109375,-0.0257720947265625,-0.6055450439453125
20059,-1.306076049804688,-0.0621795654296875,-0.5689697265625
20060,-1.3333740234375,-0.5460357666015625,-0.4214019775390625
20061,-0.015350341796875,0.233642578125,-0.9033660888671876
20062,-0.8076171875,-0.3246002197265625,-1.940383911132812
20063,-1.157562255859375,-0.13507080078125,0.5465240478515625
20064,-0.684356689453125,0.111602783203125,-0.44873046875
20065,-0.959259033203125,0.0131072998046875,-0.470550537109375
20066,-1.0831298828125,0.0562744140625,-0.1832427978515625
20067,-0.85211181640625,-0.087890625,-0.469024658203125
20068,-0.94488525390625,-0.045013427734375,-0.4682769775390625
20069,-0.9129791259765624,-0.059661865234375,-0.3589935302734375
20070,-0.884765625,-0.0998687744140625,-0.3038330078125
20071,-0.9019775390625,-0.0875396728515625,-0.3282623291015625
20072,-0.9091033935546876,-0.1032867431640625,-0.3489990234375
20073,-0.9265899658203124,-0.0930633544921875,-0.36175537109375
20074,-0.948699951171875,-0.0765380859375,-0.3461456298828125
20075,-0.94769287109375,-0.07159423828125,-0.335906982421875
20076,-0.9483642578125,-0.0756988525390625,-0.3394775390625
20077,-0.93017578125,-0.078521728515625,-0.3367462158203125
20078,-0.9114227294921876,-0.078765869140625,-0.3380584716796875
20079,-0.9085845947265624,-0.0848236083984375,-0.347320556640625
20080,-0.9096527099609376,-0.0839996337890625,-0.3446807861328125
20081,-0.9208831787109376,-0.0754241943359375,-0.34210205078125
20082,-0.931793212890625,-0.064971923828125,-0.3413543701171875
20083,-0.950958251953125,-0.0583343505859375,-0.347503662109375
20084,-0.962738037109375,-0.0564727783203125,-0.355865478515625
20085,-0.9736785888671876,-0.05535888671875,-0.353179931640625
20086,-0.96917724609375,-0.05908203125,-0.3514251708984375
20087,-0.9523773193359376,-0.061126708984375,-0.343841552734375
20088,-0.9345550537109376,-0.0668792724609375,-0.3335418701171875
20089,-0.92193603515625,-0.075592041015625,-0.326385498046875
20090,-0.9176177978515624,-0.0835418701171875,-0.3321990966796875
20091,-0.9196624755859376,-0.090057373046875,-0.3387451171875
20092,-0.927093505859375,-0.085968017578125,-0.3379974365234375
20093,-0.940216064453125,-0.079925537109375,-0.3462677001953125
20094,-0.9484405517578124,-0.0709075927734375,-0.3506927490234375
20095,-0.95843505859375,-0.0623016357421875,-0.347503662109375
20096,-0.9543609619140624,-0.05902099609375,-0.341156005859375
20097,-0.9429168701171876,-0.0608978271484375,-0.33935546875
20098,-0.9279022216796876,-0.0685272216796875,-0.336456298828125
20099,-0.922454833984375,-0.079925537109375,-0.3330078125
20100,-0.923919677734375,-0.0823822021484375,-0.333282470703125
20101,-0.9249267578125,-0.0800933837890625,-0.3368988037109375
20102,-0.9344635009765624,-0.0729522705078125,-0.338226318359375
20103,-0.936676025390625,-0.0644683837890625,-0.3345947265625
20104,-0.9385528564453124,-0.052520751953125,-0.3239898681640625
20105,-0.945648193359375,-0.0532073974609375,-0.3236236572265625
20106,-0.9444580078125,-0.0618438720703125,-0.3300628662109375
20107,-0.9397430419921876,-0.0697479248046875,-0.3387908935546875
20108,-0.9319610595703124,-0.0756988525390625,-0.337158203125
20109,-0.9306793212890624,-0.0725860595703125,-0.327972412109375
20110,-0.9294281005859376,-0.06951904296875,-0.3315887451171875
20111,-0.933074951171875,-0.0649566650390625,-0.3315582275390625
20112,-0.936004638671875,-0.0683135986328125,-0.3308258056640625
20113,-0.9547576904296876,-0.0692596435546875,-0.3307647705078125
20114,-0.96295166015625,-0.0671844482421875,-0.331451416015625
20115,-0.9511871337890624,-0.0634307861328125,-0.335418701171875
20116,-0.9405975341796876,-0.0614013671875,-0.3343505859375
20117,-0.9425811767578124,-0.0695037841796875,-0.3376922607421875
20118,-0.940032958984375,-0.0738677978515625,-0.338836669921875
20119,-0.935333251953125,-0.079681396484375,-0.3391876220703125
20120,-0.9340667724609376,-0.07861328125,-0.3378448486328125
20121,-0.9347076416015624,-0.0689849853515625,-0.32623291015625
20122,-0.9384613037109376,-0.070037841796875,-0.3231964111328125
20123,-0.9476470947265624,-0.06072998046875,-0.32244873046875
20124,-0.9483489990234376,-0.0576171875,-0.3262786865234375
20125,-0.9528045654296876,-0.06365966796875,-0.3327484130859375
20126,-0.9532012939453124,-0.0771026611328125,-0.3316802978515625
20127,-0.94842529296875,-0.0790557861328125,-0.328399658203125
20128,-0.9362945556640624,-0.0796661376953125,-0.3234710693359375
20129,-0.9379425048828124,-0.0812530517578125,-0.3175201416015625
20130,-0.93414306640625,-0.07696533203125,-0.310760498046875
20131,-0.9348907470703124,-0.0655364990234375,-0.309356689453125
20132,-0.935394287109375,-0.0634918212890625,-0.3173980712890625
20133,-0.9477386474609376,-0.06549072265625,-0.3260498046875
20134,-0.9514617919921876,-0.0636138916015625,-0.3299560546875
20135,-0.9535675048828124,-0.0670318603515625,-0.3235931396484375
20136,-0.948089599609375,-0.072052001953125,-0.3209991455078125
20137,-0.9432525634765624,-0.0803070068359375,-0.3207244873046875
20138,-0.942230224609375,-0.0838470458984375,-0.3226165771484375
20139,-0.9369659423828124,-0.0844573974609375,-0.3262939453125
20140,-0.9350128173828124,-0.0797576904296875,-0.323089599609375
20141,-0.9311981201171876,-0.0721893310546875,-0.3261566162109375
20142,-0.93243408203125,-0.0704803466796875,-0.330413818359375
20143,-0.9389495849609376,-0.074493408203125,-0.3314208984375
20144,-0.9404754638671876,-0.075225830078125,-0.328155517578125
20145,-0.934844970703125,-0.0799713134765625,-0.3287200927734375
20146,-0.932647705078125,-0.08514404296875,-0.3300628662109375
20147,-0.936553955078125,-0.0825653076171875,-0.329742431640625
20148,-0.9362030029296876,-0.0792694091796875,-0.3311004638671875
20149,-0.94525146484375,-0.0804290771484375,-0.3306884765625
20150,-0.9489898681640624,-0.075042724609375,-0.3280487060546875
20151,-0.9448699951171876,-0.07513427734375,-0.335723876953125
20152,-0.9422149658203124,-0.0801239013671875,-0.338836669921875
20153,-0.9402923583984376,-0.07196044921875,-0.3301849365234375
20154,-0.94232177734375,-0.070953369140625,-0.324859619140625
20155,-0.9397430419921876,-0.0761566162109375,-0.323089599609375
20156,-0.938323974609375,-0.075897216796875,-0.3217315673828125
20157,-0.9430389404296876,-0.076812744140625,-0.324554443359375
20158,-0.9367218017578124,-0.07476806640625,-0.32745361328125
20159,-0.9376068115234376,-0.067596435546875,-0.33050537109375
20160,-0.9399261474609376,-0.065765380859375,-0.326995849609375
20161,-0.94354248046875,-0.0643310546875,-0.3239593505859375
20162,-0.9386444091796876,-0.066131591796875,-0.323822021484375
20163,-0.9405364990234376,-0.0687713623046875,-0.326629638671875
20164,-0.94140625,-0.071990966796875,-0.3294677734375
20165,-0.9467010498046876,-0.073272705078125,-0.3285369873046875
20166,-0.9450531005859376,-0.0793609619140625,-0.3314666748046875
20167,-0.937408447265625,-0.0772552490234375,-0.338714599609375
20168,-0.9346160888671876,-0.0752410888671875,-0.3393707275390625
20169,-0.926239013671875,-0.075927734375,-0.334930419921875
20170,-0.9249725341796876,-0.0745697021484375,-0.3274993896484375
20171,-0.92230224609375,-0.0774383544921875,-0.3316802978515625
20172,-0.9301910400390624,-0.0728912353515625,-0.3426971435546875
20173,-0.939239501953125,-0.0684967041015625,-0.352630615234375
20174,-0.940185546875,-0.0653228759765625,-0.343505859375
20175,-0.9476776123046876,-0.071624755859375,-0.34246826171875
20176,-0.948699951171875,-0.0741119384765625,-0.3460693359375
20177,-0.9367828369140624,-0.0699615478515625,-0.3307037353515625
20178,-0.9372100830078124,-0.0711517333984375,-0.3253326416015625
20179,-0.9321441650390624,-0.06927490234375,-0.337615966796875
20180,-0.933319091796875,-0.0699310302734375,-0.352874755859375
20181,-0.9366455078125,-0.067901611328125,-0.3536529541015625
20182,-0.937591552734375,-0.0643768310546875,-0.3515167236328125
20183,-0.934906005859375,-0.0662841796875,-0.3549041748046875
20184,-0.9351043701171876,-0.0660247802734375,-0.35406494140625
20185,-0.9337921142578124,-0.069854736328125,-0.352569580078125
20186,-0.9228668212890624,-0.0785980224609375,-0.349456787109375
20187,-0.920623779296875,-0.0758514404296875,-0.3509063720703125
20188,-0.9243316650390624,-0.0779571533203125,-0.3493804931640625
20189,-0.9263916015625,-0.074554443359375,-0.3524932861328125
20190,-0.935821533203125,-0.069061279296875,-0.3514556884765625
20191,-0.939605712890625,-0.06427001953125,-0.34716796875
20192,-0.93988037109375,-0.0596771240234375,-0.3391265869140625
20193,-0.939178466796875,-0.062591552734375,-0.339202880859375
20194,-0.934600830078125,-0.0687713623046875,-0.34417724609375
20195,-0.9319915771484376,-0.0728912353515625,-0.339599609375
20196,-0.9351806640625,-0.074371337890625,-0.3418121337890625
20197,-0.933013916015625,-0.0819091796875,-0.3493499755859375
20198,-0.9252471923828124,-0.0776214599609375,-0.3575439453125
20199,-0.928680419921875,-0.0696868896484375,-0.35150146484375
20200,-0.9237518310546876,-0.0579681396484375,-0.3352813720703125
20201,-0.9215240478515624,-0.0616455078125,-0.3389129638671875
20202,-0.9222259521484376,-0.06475830078125,-0.3475189208984375
20203,-0.9329376220703124,-0.066680908203125,-0.3460845947265625
20204,-0.94317626953125,-0.0617523193359375,-0.3481597900390625
20205,-0.9483489990234376,-0.05450439453125,-0.3546142578125
20206,-0.955230712890625,-0.053558349609375,-0.369873046875
20207,-0.9613800048828124,-0.046875,-0.36785888671875
20208,-0.963592529296875,-0.043243408203125,-0.359344482421875
20209,-0.9506072998046876,-0.0508575439453125,-0.3614959716796875
20210,-0.9390716552734376,-0.051727294921875,-0.354827880859375
20211,-0.9244384765625,-0.057891845703125,-0.3470306396484375
20212,-0.912078857421875,-0.060791015625,-0.3401031494140625
20213,-0.9132232666015624,-0.0705413818359375,-0.3434295654296875
20214,-0.9210205078125,-0.070343017578125,-0.350677490234375
20215,-0.929412841796875,-0.0670623779296875,-0.3484649658203125
20216,-0.9344635009765624,-0.06170654296875,-0.3522491455078125
20217,-0.9381103515625,-0.0548553466796875,-0.361328125
20218,-0.9359588623046876,-0.041748046875,-0.35888671875
20219,-0.9288177490234376,-0.0440521240234375,-0.3541259765625
20220,-0.9383697509765624,-0.062408447265625,-0.3407135009765625
20221,-0.9136962890625,-0.03778076171875,-0.314849853515625
20222,-0.960906982421875,-0.100250244140625,-0.34613037109375
20223,-0.95751953125,-0.1117706298828125,-0.337371826171875
20224,-0.9160003662109376,-0.0914459228515625,-0.3331146240234375
20225,-0.917449951171875,-0.0792999267578125,-0.314727783203125
20226,-0.92401123046875,-0.088714599609375,-0.31201171875
20227,-0.937042236328125,-0.09283447265625,-0.3273773193359375
20228,-0.9281768798828124,-0.0750885009765625,-0.3078460693359375
20229,-0.9261474609375,-0.0690460205078125,-0.2752227783203125
20230,-0.912261962890625,-0.0675048828125,-0.284271240234375
20231,-0.8770904541015625,-0.0647735595703125,-0.2698974609375
20232,-0.8973541259765625,-0.0688323974609375,-0.2681427001953125
20233,-0.936553955078125,-0.0784912109375,-0.3458099365234375
20234,-0.8901519775390625,-0.06683349609375,-0.4508056640625
20235,-0.883819580078125,-0.10601806640625,-0.4418792724609375
20236,-0.9535064697265624,-0.14508056640625,-0.3616485595703125
20237,-0.9781646728515624,-0.1381683349609375,-0.27978515625
20238,-0.9840240478515624,-0.1480712890625,-0.3002777099609375
20239,-0.963714599609375,-0.1567535400390625,-0.349517822265625
20240,-0.932830810546875,-0.1392974853515625,-0.3321380615234375
20241,-0.902191162109375,-0.122039794921875,-0.300628662109375
20242,-0.876953125,-0.1141815185546875,-0.2741241455078125
20243,-0.85552978515625,-0.1025390625,-0.2590484619140625
20244,-0.8459320068359375,-0.1136627197265625,-0.250244140625
20245,-0.8434600830078125,-0.135986328125,-0.235015869140625
20246,-0.8502349853515625,-0.1421661376953125,-0.2180938720703125
20247,-0.875274658203125,-0.1763153076171875,-0.2168121337890625
20248,-0.9068145751953124,-0.2115631103515625,-0.22607421875
20249,-0.9363250732421876,-0.226898193359375,-0.2251129150390625
20250,-0.9499969482421876,-0.2336273193359375,-0.2234039306640625
20251,-0.953582763671875,-0.232574462890625,-0.2075653076171875
20252,-0.9467315673828124,-0.2333221435546875,-0.186004638671875
20253,-0.9303436279296876,-0.2258148193359375,-0.190521240234375
20254,-0.9167327880859376,-0.2242889404296875,-0.2038116455078125
20255,-0.909912109375,-0.231597900390625,-0.2104949951171875
20256,-0.918731689453125,-0.2345428466796875,-0.2014007568359375
20257,-0.9520111083984376,-0.25115966796875,-0.19769287109375
20258,-1.000869750976562,-0.2826385498046875,-0.1884918212890625
20259,-1.063552856445312,-0.305816650390625,-0.1316680908203125
20260,-1.1083984375,-0.2957611083984375,-0.0471954345703125
20261,-1.11749267578125,-0.2694244384765625,-0.0057373046875
20262,-1.09130859375,-0.27001953125,-0.0339202880859375
20263,-1.044815063476562,-0.266387939453125,-0.0818328857421875
20264,-0.9877471923828124,-0.25244140625,-0.1038360595703125
20265,-0.959442138671875,-0.276641845703125,-0.09161376953125
20266,-0.9702606201171876,-0.3109283447265625,-0.0832672119140625
20267,-0.9689483642578124,-0.3308868408203125,-0.094696044921875
20268,-0.968109130859375,-0.3311920166015625,-0.0801849365234375
20269,-0.9200286865234376,-0.2767791748046875,0.0039215087890625
20270,-0.8156585693359375,-0.2642669677734375,0.1258697509765625
20271,-0.7580718994140625,-0.2500762939453125,0.1400299072265625
20272,-0.7433013916015625,-0.2754669189453125,0.080780029296875
20273,-0.7917633056640625,-0.3478851318359375,-0.0391387939453125
20274,-0.841033935546875,-0.4387054443359375,-0.105316162109375
20275,-0.8930816650390625,-0.489349365234375,-0.08294677734375
20276,-0.914337158203125,-0.4976043701171875,0.071044921875
20277,-0.926666259765625,-0.50787353515625,0.2174835205078125
20278,-0.9440765380859376,-0.511505126953125,0.3218231201171875
20279,-0.9531097412109376,-0.507965087890625,0.3834381103515625
20280,-0.94964599609375,-0.4940032958984375,0.4032745361328125
20281,-0.933868408203125,-0.502716064453125,0.3791656494140625
20282,-0.9119415283203124,-0.5776824951171875,0.2677459716796875
20283,-0.911773681640625,-0.657012939453125,0.0921630859375
20284,-0.9113922119140624,-0.7398834228515625,-0.052337646484375
20285,-0.9022216796875,-0.7463836669921875,-0.138519287109375
20286,-0.8676910400390625,-0.723785400390625,-0.090057373046875
20287,-0.8293304443359375,-0.6634063720703125,0.07373046875
20288,-0.78387451171875,-0.597747802734375,0.3111114501953125
20289,-0.75860595703125,-0.525482177734375,0.5483245849609375
20290,-0.7490081787109375,-0.4892578125,0.75531005859375
20291,-0.757568359375,-0.5226593017578125,0.8661346435546875
20292,-0.79461669921875,-0.5931396484375,0.809112548828125
20293,-0.8406829833984375,-0.67767333984375,0.6852264404296875
20294,-0.8892974853515625,-0.765655517578125,0.5927886962890625
20295,-0.930999755859375,-0.846832275390625,0.5484619140625
20296,-0.92425537109375,-0.852569580078125,0.4892120361328125
20297,-0.8472747802734375,-0.7670135498046875,0.4913330078125
20298,-0.739349365234375,-0.646331787109375,0.6325531005859375
20299,-0.6312408447265625,-0.565216064453125,0.810089111328125
20300,-0.5944976806640625,-0.5224761962890625,0.884124755859375
20301,-0.5916290283203125,-0.539886474609375,0.9371185302734376
20302,-0.6025848388671875,-0.567108154296875,0.9522247314453124
20303,-0.635650634765625,-0.59722900390625,0.9193115234375
20304,-0.6635894775390625,-0.6162261962890625,0.8669281005859375
20305,-0.6586761474609375,-0.597625732421875,0.8013153076171875
20306,-0.6208038330078125,-0.526702880859375,0.7908935546875
20307,-0.5767059326171875,-0.441436767578125,0.8533477783203125
20308,-0.504150390625,-0.364349365234375,0.9852752685546876
20309,-0.4200286865234375,-0.30511474609375,1.097671508789062
20310,-0.3519744873046875,-0.229095458984375,1.145965576171875
20311,-0.271697998046875,-0.1939697265625,1.200149536132812
20312,-0.2264556884765625,-0.1421661376953125,1.235595703125
20313,-0.205474853515625,-0.13604736328125,1.157257080078125
20314,-0.1805419921875,-0.135345458984375,1.10858154296875
20315,-0.1637725830078125,-0.0952301025390625,1.0966796875
20316,-0.166290283203125,-0.051849365234375,1.152725219726562
20317,-0.1576385498046875,-0.048553466796875,1.222000122070312
20318,-0.151458740234375,0.018585205078125,1.153549194335938
20319,-0.08837890625,0.10675048828125,1.057754516601562
20320,-0.023834228515625,0.1339874267578125,1.0201416015625
20321,-0.01641845703125,0.176727294921875,0.9979400634765624
20322,0.0152740478515625,0.13604736328125,0.9314117431640624
20323,0.04998779296875,0.204925537109375,0.863189697265625
20324,0.0597381591796875,0.2282867431640625,0.876861572265625
20325,0.0543975830078125,0.2035675048828125,0.9116973876953124
20326,0.0294036865234375,0.2196807861328125,0.920440673828125
20327,0.00885009765625,0.2394866943359375,0.82940673828125
20328,0.0139617919921875,0.2035064697265625,0.74566650390625
20329,0.026702880859375,0.1739654541015625,0.7373809814453125
20330,0.0711669921875,0.230743408203125,0.79595947265625
20331,0.1943817138671875,0.3303680419921875,0.749664306640625
20332,0.2846527099609375,0.397430419921875,0.77044677734375
20333,0.3397979736328125,0.3979339599609375,0.8941497802734375
20334,0.352447509765625,0.3853912353515625,0.9372711181640624
20335,0.305572509765625,0.375,0.837005615234375
20336,0.2384796142578125,0.36572265625,0.796966552734375
20337,0.2039337158203125,0.3421783447265625,0.903900146484375
20338,0.1928558349609375,0.3195953369140625,0.91180419921875
20339,0.14544677734375,0.349639892578125,0.78369140625
20340,0.043548583984375,0.4058990478515625,0.6894073486328125
20341,-0.0449676513671875,0.4105682373046875,0.71075439453125
20342,-0.0741424560546875,0.36358642578125,0.7401885986328125
20343,-0.0521240234375,0.2914886474609375,0.749725341796875
20344,-0.007171630859375,0.232635498046875,0.788421630859375
20345,0.037628173828125,0.2313232421875,0.8075408935546875
20346,0.0673065185546875,0.2207794189453125,0.829254150390625
20347,0.08746337890625,0.21630859375,0.8332672119140625
20348,0.100433349609375,0.216827392578125,0.7820587158203125
20349,0.0913543701171875,0.22332763671875,0.7741546630859375
20350,0.073516845703125,0.2666168212890625,0.77532958984375
20351,0.0644989013671875,0.31842041015625,0.7702789306640625
20352,0.04949951171875,0.3549957275390625,0.7374267578125
20353,0.032684326171875,0.382232666015625,0.7370147705078125
20354,0.0550537109375,0.3779296875,0.784393310546875
20355,0.0935821533203125,0.318115234375,0.835784912109375
20356,0.12738037109375,0.2708892822265625,0.88861083984375
20357,0.14495849609375,0.261505126953125,0.9065399169921876
20358,0.1346435546875,0.2573394775390625,0.9205780029296876
20359,0.13525390625,0.273834228515625,0.92388916015625
20360,0.1351776123046875,0.3028106689453125,0.8569183349609375
20361,0.1366119384765625,0.34490966796875,0.814361572265625
20362,0.1481170654296875,0.3972015380859375,0.8268890380859375
20363,0.1688079833984375,0.4361419677734375,0.733917236328125
20364,0.1804351806640625,0.4714202880859375,0.689971923828125
20365,0.1838836669921875,0.4946136474609375,0.765472412109375
20366,0.1949462890625,0.494293212890625,0.75421142578125
20367,0.218780517578125,0.4991302490234375,0.710174560546875
20368,0.27117919921875,0.5389862060546875,0.7417144775390625
20369,0.3081207275390625,0.541534423828125,0.6965484619140625
20370,0.3228912353515625,0.547393798828125,0.834869384765625
20371,0.3369293212890625,0.55535888671875,0.9960479736328124
20372,0.34161376953125,0.542144775390625,0.9571533203125
20373,0.309906005859375,0.527984619140625,0.8404083251953125
20374,0.2388763427734375,0.5264434814453125,0.773468017578125
20375,0.1829376220703125,0.51611328125,0.7808837890625
20376,0.1569671630859375,0.5017852783203125,0.8013916015625
20377,0.1428985595703125,0.4761505126953125,0.8169708251953125
20378,0.146453857421875,0.4196319580078125,0.870330810546875
20379,0.1682586669921875,0.3831024169921875,0.9795379638671876
20380,0.18939208984375,0.3601837158203125,0.93548583984375
20381,0.2173614501953125,0.3573455810546875,0.9403533935546876
20382,0.22088623046875,0.3810882568359375,0.9610443115234376
20383,0.2083587646484375,0.410675048828125,0.9311370849609376
20384,0.1898193359375,0.435760498046875,0.88507080078125
20385,0.172119140625,0.442047119140625,0.8761444091796875
20386,0.1676025390625,0.4179229736328125,0.8854217529296875
20387,0.1579437255859375,0.390045166015625,0.8211669921875
20388,0.158599853515625,0.387237548828125,0.7493743896484375
20389,0.1589202880859375,0.409637451171875,0.7023162841796875
20390,0.1707305908203125,0.46429443359375,0.8090057373046875
20391,0.1723480224609375,0.52960205078125,0.7964019775390625
20392,0.1645355224609375,0.55316162109375,0.7255706787109375
20393,0.164093017578125,0.564300537109375,0.7806549072265625
20394,0.1454620361328125,0.5658111572265625,0.798309326171875
20395,0.128265380859375,0.55023193359375,0.79931640625
20396,0.1062469482421875,0.5261993408203125,0.82025146484375
20397,0.105560302734375,0.5113677978515625,0.8534393310546875
20398,0.1215667724609375,0.4924163818359375,0.86224365234375
20399,0.1576385498046875,0.4357452392578125,0.842926025390625
20400,0.1773529052734375,0.3946685791015625,0.771453857421875
20401,0.1840057373046875,0.4003143310546875,0.7476654052734375
20402,0.1785430908203125,0.4338226318359375,0.76220703125
20403,0.16650390625,0.505340576171875,0.744873046875
20404,0.16156005859375,0.584808349609375,0.7088470458984375
20405,0.15069580078125,0.652587890625,0.7252960205078125
20406,0.1160736083984375,0.692413330078125,0.779632568359375
20407,0.0586700439453125,0.709869384765625,0.8353271484375
20408,0.0177459716796875,0.769775390625,0.9395599365234376
20409,-0.0575103759765625,0.6865386962890625,0.947906494140625
20410,-0.1529998779296875,0.572845458984375,0.882171630859375
20411,-0.2313079833984375,0.5020294189453125,0.694305419921875
20412,-0.2193756103515625,0.5111541748046875,0.556427001953125
20413,-0.168365478515625,0.5322265625,0.742401123046875
20414,-0.111236572265625,0.53863525390625,0.9509429931640624
20415,-0.0683746337890625,0.545989990234375,1.059524536132812
20416,-0.1203765869140625,0.5568695068359375,0.9587554931640624
20417,-0.2122955322265625,0.5481719970703125,0.6859283447265625
20418,-0.2236480712890625,0.5554046630859375,0.5501708984375
20419,-0.13623046875,0.563690185546875,0.5743560791015625
20420,-0.02752685546875,0.5615081787109375,0.804931640625
20421,0.02252197265625,0.584869384765625,0.94012451171875
20422,0.032623291015625,0.6334075927734375,0.8337554931640625
20423,0.0048980712890625,0.7123870849609375,0.680328369140625
20424,-0.075164794921875,0.7804107666015625,0.616851806640625
20425,-0.1447296142578125,0.772430419921875,0.7425537109375
20426,-0.177947998046875,0.6827239990234375,0.815460205078125
20427,-0.21295166015625,0.5772705078125,0.7199249267578125
20428,-0.2246246337890625,0.49810791015625,0.7106170654296875
20429,-0.182708740234375,0.4568939208984375,0.8021697998046875
20430,-0.1291656494140625,0.4277496337890625,0.8593597412109375
20431,-0.087371826171875,0.4298095703125,0.8587493896484375
20432,-0.059722900390625,0.4762420654296875,0.8235931396484375
20433,-0.0865325927734375,0.5504150390625,0.787811279296875
20434,-0.151519775390625,0.59381103515625,0.7368621826171875
20435,-0.2151947021484375,0.55487060546875,0.7491302490234375
20436,-0.1887359619140625,0.4783935546875,0.8444976806640625
20437,0.0201568603515625,0.5237274169921875,1.01519775390625
20438,0.132293701171875,0.68365478515625,0.888916015625
20439,-0.0591278076171875,0.624664306640625,0.8425750732421875
20440,-0.17486572265625,0.426910400390625,0.9241485595703124
20441,-0.1689300537109375,0.3983306884765625,0.9181671142578124
20442,-0.213836669921875,0.3967437744140625,0.884185791015625
20443,-0.2049407958984375,0.356781005859375,0.8967132568359375
20444,-0.170989990234375,0.30474853515625,0.9727630615234376
20445,-0.209686279296875,0.2548675537109375,0.9577789306640624
20446,-0.3196258544921875,0.243927001953125,0.9043426513671876
20447,-0.3875579833984375,0.2365875244140625,0.7827301025390625
20448,-0.3504180908203125,0.2450408935546875,0.7218170166015625
20449,-0.22052001953125,0.311187744140625,0.7025299072265625
20450,-0.23553466796875,0.2880859375,0.787261962890625
20451,-0.3228607177734375,0.270477294921875,0.907562255859375
20452,-0.418701171875,0.2923126220703125,1.066818237304688
20453,-0.4942779541015625,0.3146820068359375,1.1619873046875
20454,-0.495819091796875,0.2955474853515625,1.2020263671875
20455,-0.428375244140625,0.24359130859375,1.24383544921875
20456,-0.3143310546875,0.1924591064453125,1.337005615234375
20457,-0.10498046875,0.072906494140625,1.334335327148438
20458,0.0029296875,-0.02716064453125,1.054641723632812
20459,-0.16094970703125,0.14599609375,0.7283935546875
20460,-0.3222503662109375,0.272125244140625,0.697235107421875
20461,-0.4437408447265625,0.31024169921875,0.758209228515625
20462,-0.569122314453125,0.34423828125,0.6551055908203125
20463,-0.568023681640625,0.3212738037109375,0.5174102783203125
20464,-0.60162353515625,0.378204345703125,0.399658203125
20465,-0.70458984375,0.4071044921875,0.52294921875
20466,-0.77752685546875,0.342254638671875,0.5606842041015625
20467,-0.8378143310546875,0.28778076171875,0.5342864990234375
20468,-0.82147216796875,0.3127288818359375,0.6953277587890625
20469,-0.7222137451171875,0.347747802734375,0.7459716796875
20470,-0.666259765625,0.4086151123046875,0.6248931884765625
20471,-0.6372833251953125,0.499481201171875,0.4165191650390625
20472,-0.6825714111328125,0.58294677734375,0.1959991455078125
20473,-0.91741943359375,0.5889892578125,0.0503387451171875
20474,-1.119461059570312,0.4674072265625,-0.217010498046875
20475,-1.216140747070312,0.3487091064453125,-0.391998291015625
20476,-1.262115478515625,0.28997802734375,-0.604888916015625
20477,-1.242218017578125,0.2874755859375,-0.757171630859375
20478,-1.110977172851562,0.2704315185546875,-0.700897216796875
20479,-0.9661102294921876,0.282012939453125,-0.6865234375
20480,-0.8752899169921875,0.3375244140625,-0.751739501953125
20481,-0.8202972412109375,0.40106201171875,-0.8094024658203125
20482,-0.8139495849609375,0.44580078125,-0.807373046875
20483,-0.801605224609375,0.4765777587890625,-0.79095458984375
20484,-0.7785491943359375,0.485015869140625,-0.7909088134765625
20485,-0.753509521484375,0.485260009765625,-0.84051513671875
20486,-0.7312469482421875,0.4766998291015625,-0.94036865234375
20487,-0.6962738037109375,0.4722747802734375,-1.094345092773438
20488,-0.6663360595703125,0.4864044189453125,-1.27569580078125
20489,-0.64434814453125,0.5046844482421875,-1.435958862304688
20490,-0.6273956298828125,0.506378173828125,-1.522552490234375
20491,-0.6107025146484375,0.478973388671875,-1.497467041015625
20492,-0.59759521484375,0.427581787109375,-1.407211303710938
20493,-0.6091766357421875,0.3536834716796875,-1.275741577148438
20494,-0.60675048828125,0.2854461669921875,-1.127243041992188
20495,-0.57672119140625,0.2494964599609375,-1.008697509765625
20496,-0.5379638671875,0.2038726806640625,-0.861663818359375
20497,-0.503814697265625,0.1368408203125,-0.7126922607421875
20498,-0.4824981689453125,0.0963897705078125,-0.625946044921875
20499,-0.46221923828125,0.087738037109375,-0.581756591796875
20500,-0.4615325927734375,0.0943756103515625,-0.5971832275390625
20501,-0.4680328369140625,0.1233367919921875,-0.658905029296875
20502,-0.454620361328125,0.15618896484375,-0.729766845703125
20503,-0.4356689453125,0.1700439453125,-0.75494384765625
20504,-0.416107177734375,0.165924072265625,-0.7640533447265625
20505,-0.381378173828125,0.1374664306640625,-0.813690185546875
20506,-0.34027099609375,0.08331298828125,-0.8738861083984375
20507,-0.2949371337890625,0.035308837890625,-0.909820556640625
20508,-0.2630767822265625,0.0093231201171875,-0.9481658935546876
20509,-0.23626708984375,0.0028228759765625,-0.9786834716796876
20510,-0.2325286865234375,0.017669677734375,-0.939117431640625
20511,-0.240997314453125,0.0281219482421875,-0.899078369140625
20512,-0.2258453369140625,0.0158538818359375,-0.917205810546875
20513,-0.183990478515625,-0.0025787353515625,-0.9534759521484376
20514,-0.1551666259765625,-0.02734375,-0.948333740234375
20515,-0.136566162109375,-0.0732421875,-0.919647216796875
20516,-0.133331298828125,-0.127044677734375,-0.884735107421875
20517,-0.1376800537109375,-0.166107177734375,-0.8383636474609375
20518,-0.136474609375,-0.1779022216796875,-0.8227081298828125
20519,-0.1356353759765625,-0.1791839599609375,-0.8319091796875
20520,-0.1234283447265625,-0.1876068115234375,-0.8489990234375
20521,-0.1097412109375,-0.2084197998046875,-0.8637542724609375
20522,-0.1013031005859375,-0.2388916015625,-0.8851776123046875
20523,-0.0948028564453125,-0.273345947265625,-0.9320220947265624
20524,-0.0907440185546875,-0.294830322265625,-1.00390625
20525,-0.0887451171875,-0.296661376953125,-1.076522827148438
20526,-0.0848846435546875,-0.3085174560546875,-1.110519409179688
20527,-0.076690673828125,-0.31298828125,-1.09869384765625
20528,-0.06976318359375,-0.2792205810546875,-1.054931640625
20529,-0.0866851806640625,-0.205108642578125,-1.035812377929688
20530,-0.124359130859375,-0.1241302490234375,-1.018264770507812
20531,-0.1734466552734375,-0.052001953125,-0.9907073974609376
20532,-0.20526123046875,0.0104522705078125,-0.953216552734375
20533,-0.2146148681640625,0.0299072265625,-0.9196929931640624
20534,-0.203338623046875,0.004852294921875,-0.8905487060546875
20535,-0.166839599609375,-0.05078125,-0.873748779296875
20536,-0.12152099609375,-0.1094512939453125,-0.8473968505859375
20537,-0.099212646484375,-0.13897705078125,-0.8214263916015625
20538,-0.0975189208984375,-0.1468353271484375,-0.8104248046875
20539,-0.1023406982421875,-0.1411285400390625,-0.814666748046875
20540,-0.11236572265625,-0.1219940185546875,-0.8060302734375
20541,-0.130584716796875,-0.1109619140625,-0.8099212646484375
20542,-0.1474609375,-0.1179351806640625,-0.854522705078125
20543,-0.155426025390625,-0.120941162109375,-0.9057159423828124
20544,-0.1646881103515625,-0.096588134765625,-0.9354705810546876
20545,-0.17059326171875,-0.064056396484375,-0.95001220703125
20546,-0.1714019775390625,-0.0258941650390625,-0.9654998779296876
20547,-0.1663818359375,0.019500732421875,-0.978790283203125
20548,-0.1501617431640625,0.050628662109375,-0.9793548583984376
20549,-0.1295013427734375,0.0496826171875,-0.993408203125
20550,-0.1085662841796875,0.014190673828125,-1.048477172851562
20551,-0.0900726318359375,-0.0381317138671875,-1.110321044921875
20552,-0.0805206298828125,-0.097442626953125,-1.149429321289062
20553,-0.0705108642578125,-0.1421966552734375,-1.135482788085938
20554,-0.065521240234375,-0.165008544921875,-1.074081420898438
20555,-0.0787811279296875,-0.15704345703125,-0.992218017578125
20556,-0.109832763671875,-0.141815185546875,-0.93780517578125
20557,-0.131439208984375,-0.1307220458984375,-0.8983917236328125
20558,-0.1602935791015625,-0.119140625,-0.8989715576171875
20559,-0.184783935546875,-0.08831787109375,-0.92724609375
20560,-0.1898956298828125,-0.0503082275390625,-0.9664459228515624
20561,-0.187957763671875,-0.0178070068359375,-1.007568359375
20562,-0.1860504150390625,0.011016845703125,-1.023223876953125
20563,-0.180389404296875,0.0372467041015625,-1.027923583984375
20564,-0.1714019775390625,0.0653839111328125,-1.004730224609375
20565,-0.1661224365234375,0.0958404541015625,-0.980743408203125
20566,-0.17779541015625,0.1264801025390625,-0.96209716796875
20567,-0.1947479248046875,0.162567138671875,-0.9174041748046876
20568,-0.200775146484375,0.1861724853515625,-0.9033050537109376
20569,-0.2047882080078125,0.184295654296875,-0.9285888671875
20570,-0.2069091796875,0.1420440673828125,-0.9786834716796876
20571,-0.191619873046875,0.0796051025390625,-1.03717041015625
20572,-0.1579742431640625,0.0150299072265625,-1.0838623046875
20573,-0.1220703125,-0.0265960693359375,-1.118408203125
20574,-0.1024017333984375,-0.0370941162109375,-1.154861450195312
20575,-0.1077880859375,-0.0317535400390625,-1.169540405273438
20576,-0.1250762939453125,-0.028228759765625,-1.14892578125
20577,-0.142578125,-0.03033447265625,-1.112518310546875
20578,-0.1597747802734375,-0.04827880859375,-1.099227905273438
20579,-0.162750244140625,-0.07476806640625,-1.063186645507812
20580,-0.16094970703125,-0.0731201171875,-1.00469970703125
20581,-0.16107177734375,-0.061279296875,-0.9528961181640624
20582,-0.156951904296875,-0.0653839111328125,-0.961669921875
20583,-0.1555023193359375,-0.0894622802734375,-1.011825561523438
20584,-0.161529541015625,-0.140106201171875,-1.06878662109375
20585,-0.14105224609375,-0.210784912109375,-1.120849609375
20586,-0.1102752685546875,-0.2704315185546875,-1.165740966796875
20587,-0.0894622802734375,-0.2896575927734375,-1.129318237304688
20588,-0.0873565673828125,-0.2717437744140625,-1.055816650390625
20589,-0.100250244140625,-0.24017333984375,-1.010452270507812
20590,-0.1144866943359375,-0.212249755859375,-0.989715576171875
20591,-0.120513916015625,-0.1746673583984375,-0.991851806640625
20592,-0.1050872802734375,-0.1430511474609375,-1.018264770507812
20593,-0.0854339599609375,-0.1385040283203125,-1.067398071289062
20594,-0.0606842041015625,-0.163482666015625,-1.115264892578125
20595,-0.0396575927734375,-0.2108154296875,-1.12481689453125
20596,-0.0306396484375,-0.2580108642578125,-1.091384887695312
20597,-0.020355224609375,-0.2958221435546875,-1.00250244140625
20598,-0.0315399169921875,-0.3044281005859375,-0.8616943359375
20599,-0.0800628662109375,-0.266082763671875,-0.756011962890625
20600,-0.11724853515625,-0.2025146484375,-0.6975250244140625
20601,-0.1303253173828125,-0.150909423828125,-0.6879730224609375
20602,-0.1252899169921875,-0.1453399658203125,-0.7337799072265625
20603,-0.0797576904296875,-0.1821746826171875,-0.8027801513671875
20604,-0.0103912353515625,-0.21478271484375,-0.82940673828125
20605,0.058502197265625,-0.2451324462890625,-0.825592041015625
20606,0.1308746337890625,-0.277435302734375,-0.806243896484375
20607,0.1859130859375,-0.2953033447265625,-0.77996826171875
20608,0.2198944091796875,-0.2763519287109375,-0.77191162109375
20609,0.233489990234375,-0.2513427734375,-0.79132080078125
20610,0.216766357421875,-0.2429962158203125,-0.8417816162109375
20611,0.1938629150390625,-0.240081787109375,-0.89825439453125
20612,0.1771087646484375,-0.241424560546875,-0.96295166015625
20613,0.156494140625,-0.238616943359375,-0.997802734375
20614,0.110595703125,-0.2261962890625,-0.959228515625
20615,0.0335693359375,-0.175384521484375,-1.2139892578125
20616,0.1116790771484375,-0.13525390625,-1.63330078125
20617,0.282928466796875,-0.2125701904296875,-1.62591552734375
20618,0.2797393798828125,-0.0979766845703125,-1.599578857421875
20619,0.1759796142578125,0.0860137939453125,-1.223098754882812
20620,-0.0456085205078125,0.2010040283203125,-0.877685546875
20621,-0.09967041015625,0.2089385986328125,-0.7444610595703125
20622,0.0272216796875,0.124053955078125,-0.687652587890625
20623,0.152679443359375,-0.0093231201171875,-0.6549835205078125
20624,0.3181915283203125,-0.2014617919921875,-0.6525421142578125
20625,0.35296630859375,-0.2834625244140625,-0.87225341796875
20626,0.2074127197265625,-0.2122955322265625,-1.04595947265625
20627,-0.0090484619140625,-0.0930633544921875,-1.067108154296875
20628,-0.11016845703125,0.0148162841796875,-1.096664428710938
20629,-0.039581298828125,0.0539398193359375,-1.185348510742188
20630,0.0743255615234375,0.019378662109375,-1.234130859375
20631,0.1528778076171875,0.029876708984375,-1.177047729492188
20632,0.1948089599609375,0.0655364990234375,-1.11407470703125
20633,0.1889495849609375,0.0825653076171875,-1.055206298828125
20634,0.158294677734375,0.1239166259765625,-1.05877685546875
20635,0.1271209716796875,0.1585693359375,-1.091476440429688
20636,0.093353271484375,0.1504669189453125,-1.122589111328125
20637,0.0954437255859375,0.078857421875,-1.13165283203125
20638,0.072052001953125,-0.0043792724609375,-1.101699829101562
20639,0.010345458984375,-0.0803070068359375,-1.101272583007812
20640,-0.0430450439453125,-0.08770751953125,-1.161941528320312
20641,-0.0507049560546875,-0.0227203369140625,-1.1534423828125
20642,-0.033966064453125,0.0505523681640625,-1.080322265625
20643,0.008453369140625,0.0955810546875,-1.018341064453125
20644,0.0213775634765625,0.1464080810546875,-0.9935760498046876
20645,0.0163116455078125,0.1696319580078125,-1.010208129882812
20646,0.0256195068359375,0.15478515625,-0.9851226806640624
20647,0.0631256103515625,0.13800048828125,-0.9748077392578124
20648,0.058319091796875,0.1318817138671875,-1.0010986328125
20649,0.0522613525390625,0.1121063232421875,-0.9853668212890624
20650,0.0588531494140625,0.1019744873046875,-1.018280029296875
20651,0.054840087890625,0.118865966796875,-0.978179931640625
20652,0.1139678955078125,0.1434326171875,-0.8769073486328125
20653,0.03546142578125,0.2453765869140625,-0.87646484375
20654,-0.038330078125,0.2215423583984375,-0.849578857421875
20655,-0.0512542724609375,0.126190185546875,-0.7609100341796875
20656,-0.0628662109375,0.0837249755859375,-0.8560028076171875
20657,-0.0540771484375,0.0273284912109375,-1.003021240234375
20658,-0.0471954345703125,-0.0280609130859375,-0.936798095703125
20659,-0.1224517822265625,-0.054351806640625,-0.8670501708984375
20660,-0.1879730224609375,-0.121002197265625,-0.849456787109375
20661,-0.206695556640625,-0.134796142578125,-0.9247894287109376
20662,-0.2608184814453125,-0.121795654296875,-0.9225311279296876
20663,-0.2611541748046875,-0.1414947509765625,-1.002288818359375
20664,-0.2021484375,-0.209991455078125,-1.058441162109375
20665,-0.2151031494140625,-0.192596435546875,-1.159103393554688
20666,-0.202484130859375,-0.1548614501953125,-1.525482177734375
20667,-0.2274322509765625,-0.22332763671875,-1.25592041015625
20668,-0.2396087646484375,-0.2292938232421875,-0.9572296142578124
20669,-0.3066864013671875,-0.2090911865234375,-0.8830718994140625
20670,-0.227630615234375,-0.2298583984375,-0.968536376953125
20671,-0.08966064453125,-0.1788330078125,-1.055694580078125
20672,-0.009368896484375,-0.147491455078125,-1.055801391601562
20673,-0.0079193115234375,-0.1365814208984375,-1.012222290039062
20674,-0.0662384033203125,-0.095245361328125,-1.017074584960938
20675,-0.10748291015625,-0.054901123046875,-1.047225952148438
20676,-0.1212158203125,-0.0232086181640625,-1.058853149414062
20677,-0.080963134765625,-0.0662994384765625,-1.03790283203125
20678,-0.0110931396484375,-0.1381683349609375,-1.025787353515625
20679,0.0106658935546875,-0.1564483642578125,-1.032394409179688
20680,0.0146331787109375,-0.1402130126953125,-1.027969360351562
20681,0.0153350830078125,-0.0967254638671875,-1.018051147460938
20682,-0.0027618408203125,-0.0588836669921875,-1.003616333007812
20683,-0.02532958984375,-0.0572662353515625,-0.9887542724609376
20684,-0.029754638671875,-0.0918731689453125,-0.9752349853515624
20685,0.000823974609375,-0.12872314453125,-1.001861572265625
20686,0.0343017578125,-0.136962890625,-1.021331787109375
20687,0.0633087158203125,-0.1246185302734375,-1.008346557617188
20688,0.1000213623046875,-0.1305084228515625,-0.9776153564453124
20689,0.1387939453125,-0.1803436279296875,-0.9278717041015624
20690,0.1635284423828125,-0.2379150390625,-0.8929595947265625
20691,0.16607666015625,-0.2806549072265625,-0.8803253173828125
20692,0.1598358154296875,-0.320526123046875,-0.8669586181640625
20693,0.140625,-0.3384857177734375,-0.8364410400390625
20694,0.1209716796875,-0.334564208984375,-0.8065643310546875
20695,0.120025634765625,-0.3291778564453125,-0.8257904052734375
20696,0.1328582763671875,-0.377166748046875,-0.8524322509765625
20697,0.1273345947265625,-0.42462158203125,-0.8583831787109375
20698,0.1129913330078125,-0.4286651611328125,-0.8579864501953125
20699,0.1158294677734375,-0.40118408203125,-0.873626708984375
20700,0.156585693359375,-0.3469390869140625,-0.9036712646484376
20701,0.2320404052734375,-0.302886962890625,-0.9250335693359376
20702,0.270904541015625,-0.2784881591796875,-0.9189605712890624
20703,0.2432708740234375,-0.3066253662109375,-0.8994293212890625
20704,0.195037841796875,-0.3595123291015625,-0.8651885986328125
20705,0.1408538818359375,-0.38330078125,-0.8556976318359375
20706,0.10076904296875,-0.38067626953125,-0.8526458740234375
20707,0.08050537109375,-0.36907958984375,-0.8513641357421875
20708,0.1010284423828125,-0.370452880859375,-0.8463897705078125
20709,0.1468505859375,-0.3574981689453125,-0.854217529296875
20710,0.20184326171875,-0.3673248291015625,-0.85723876953125
20711,0.232421875,-0.3588409423828125,-0.88092041015625
20712,0.234619140625,-0.333831787109375,-0.937591552734375
20713,0.2375030517578125,-0.3681793212890625,-1.183578491210938
20714,0.19207763671875,-0.3986663818359375,-1.0540771484375
20715,0.100738525390625,-0.3044891357421875,-0.7514495849609375
20716,0.0466156005859375,-0.3355255126953125,-0.7931671142578125
20717,-0.0019989013671875,-0.3504486083984375,-0.8236541748046875
20718,-0.0154266357421875,-0.342620849609375,-0.842681884765625
20719,0.0464630126953125,-0.302978515625,-0.8680267333984375
20720,0.142669677734375,-0.280303955078125,-0.9515380859375
20721,0.2730712890625,-0.267333984375,-1.044601440429688
20722,0.3670196533203125,-0.2417755126953125,-1.130844116210938
20723,0.34857177734375,-0.2271575927734375,-1.124557495117188
20724,0.24639892578125,-0.2701416015625,-1.081771850585938
20725,0.150146484375,-0.2981414794921875,-1.00140380859375
20726,0.0570831298828125,-0.3150787353515625,-0.95611572265625
20727,-0.0280303955078125,-0.3614501953125,-0.80877685546875
20728,-0.0802154541015625,-0.40240478515625,-0.7591094970703125
20729,-0.0805816650390625,-0.37353515625,-0.931915283203125
20730,-0.022308349609375,-0.349029541015625,-1.000503540039062
20731,0.02850341796875,-0.3889923095703125,-1.049453735351562
20732,0.0502471923828125,-0.4374237060546875,-1.075592041015625
20733,0.082550048828125,-0.461883544921875,-1.044342041015625
20734,0.138427734375,-0.447021484375,-1.049301147460938
20735,0.1494903564453125,-0.349395751953125,-1.077072143554688
20736,0.110565185546875,-0.313812255859375,-1.095809936523438
20737,-0.0103759765625,-0.449951171875,-1.084762573242188
20738,-0.224456787109375,-0.7957611083984375,-1.037857055664062
20739,-0.245086669921875,-1.112686157226562,-0.9511871337890624
20740,-0.001129150390625,-0.6863250732421875,-0.76837158203125
20741,0.0869140625,-0.3265533447265625,-0.8203582763671875
20742,-0.014923095703125,-0.3605804443359375,-0.8779296875
20743,-0.0474700927734375,-0.382110595703125,-0.764373779296875
20744,-0.07781982421875,-0.3755950927734375,-0.7466888427734375
20745,-0.1195220947265625,-0.324951171875,-0.8658599853515625
20746,-0.1663818359375,-0.257904052734375,-0.9482269287109376
20747,-0.1962432861328125,-0.183013916015625,-1.024642944335938
20748,-0.2027130126953125,-0.1310272216796875,-1.11004638671875
20749,-0.156646728515625,-0.171783447265625,-1.132720947265625
20750,-0.069732666015625,-0.3270263671875,-1.065628051757812
20751,-0.0023040771484375,-0.4280548095703125,-0.9929046630859376
20752,0.006805419921875,-0.4842376708984375,-0.9072723388671876
20753,-0.0104217529296875,-0.51824951171875,-0.84051513671875
20754,-0.0548248291015625,-0.5261688232421875,-0.785186767578125
20755,-0.0926666259765625,-0.5262451171875,-0.7520599365234375
20756,-0.1046295166015625,-0.5310516357421875,-0.771392822265625
20757,-0.0773468017578125,-0.5712890625,-0.7799072265625
20758,-0.0474700927734375,-0.590423583984375,-0.7767486572265625
20759,-0.0370941162109375,-0.584075927734375,-0.80316162109375
20760,-0.043182373046875,-0.5577239990234375,-0.83367919921875
20761,-0.0696563720703125,-0.536376953125,-0.83154296875
20762,-0.111907958984375,-0.495697021484375,-0.818389892578125
20763,-0.166473388671875,-0.4233856201171875,-0.8212432861328125
20764,-0.19219970703125,-0.3897857666015625,-0.8321685791015625
20765,-0.1766357421875,-0.4037322998046875,-0.830078125
20766,-0.1564788818359375,-0.423248291015625,-0.815765380859375
20767,-0.1500701904296875,-0.432952880859375,-0.796051025390625
20768,-0.150177001953125,-0.4241485595703125,-0.7917022705078125
20769,-0.14794921875,-0.419036865234375,-0.80413818359375
20770,-0.137542724609375,-0.4240264892578125,-0.8154144287109375
20771,-0.1241302490234375,-0.428192138671875,-0.85369873046875
20772,-0.1072235107421875,-0.4329376220703125,-0.9003448486328125
20773,-0.096343994140625,-0.4294281005859375,-0.9375457763671876
20774,-0.08837890625,-0.41937255859375,-0.9526824951171876
20775,-0.101043701171875,-0.4123382568359375,-0.9411163330078124
20776,-0.115966796875,-0.3914947509765625,-0.9063720703125
20777,-0.1381683349609375,-0.3578033447265625,-0.879608154296875
20778,-0.1535491943359375,-0.326690673828125,-0.8742218017578125
20779,-0.1481781005859375,-0.3236083984375,-0.8997802734375
20780,-0.1437225341796875,-0.331085205078125,-0.9429779052734376
20781,-0.1610107421875,-0.31683349609375,-0.96710205078125
20782,-0.1838531494140625,-0.289886474609375,-0.96044921875
20783,-0.193817138671875,-0.28173828125,-0.9343109130859376
20784,-0.1781768798828125,-0.3002471923828125,-0.8994293212890625
20785,-0.1598052978515625,-0.3245391845703125,-0.8782958984375
20786,-0.14190673828125,-0.338165283203125,-0.87969970703125
20787,-0.126434326171875,-0.3517913818359375,-0.8907318115234375
20788,-0.1246337890625,-0.360015869140625,-0.9057769775390624
20789,-0.1297454833984375,-0.35009765625,-0.9017791748046876
20790,-0.1330413818359375,-0.349578857421875,-0.902557373046875
20791,-0.1265411376953125,-0.350555419921875,-0.9170989990234376
20792,-0.1283416748046875,-0.3425445556640625,-0.927734375
20793,-0.13592529296875,-0.323944091796875,-0.9386138916015624
20794,-0.1571807861328125,-0.290771484375,-0.938690185546875
20795,-0.1800384521484375,-0.2530975341796875,-0.9223480224609376
20796,-0.1865234375,-0.236724853515625,-0.9106597900390624
20797,-0.1768646240234375,-0.237396240234375,-0.91864013671875
20798,-0.1683502197265625,-0.244232177734375,-0.9012451171875
20799,-0.1753082275390625,-0.2537078857421875,-0.8679046630859375
20800,-0.21539306640625,-0.2313995361328125,-0.869598388671875
20801,-0.2522430419921875,-0.1902008056640625,-0.871795654296875
20802,-0.263519287109375,-0.187896728515625,-0.8868865966796875
20803,-0.2412261962890625,-0.2201385498046875,-0.9216461181640624
20804,-0.2112884521484375,-0.2484893798828125,-0.9420166015625
20805,-0.194091796875,-0.2710723876953125,-0.965362548828125
20806,-0.2048187255859375,-0.253875732421875,-1.0172119140625
20807,-0.2473297119140625,-0.19354248046875,-1.0640869140625
20808,-0.2703399658203125,-0.1610870361328125,-1.09722900390625
20809,-0.22882080078125,-0.1665191650390625,-1.086288452148438
20810,-0.183441162109375,-0.2262725830078125,-0.9957275390625
20811,-0.141021728515625,-0.29278564453125,-0.91986083984375
20812,-0.128173828125,-0.313385009765625,-0.8830718994140625
20813,-0.171844482421875,-0.283355712890625,-0.9014129638671876
20814,-0.196380615234375,-0.2501373291015625,-0.96075439453125
20815,-0.1881561279296875,-0.23883056640625,-0.9761505126953124
20816,-0.1832275390625,-0.242431640625,-0.9448699951171876
20817,-0.170166015625,-0.2432708740234375,-0.909637451171875
20818,-0.142730712890625,-0.2498779296875,-0.875885009765625
20819,-0.126556396484375,-0.2543487548828125,-0.8681488037109375
20820,-0.115692138671875,-0.249847412109375,-0.913848876953125
20821,-0.1016998291015625,-0.2506103515625,-1.033706665039062
20822,-0.0900421142578125,-0.243316650390625,-1.142135620117188
20823,-0.10345458984375,-0.221221923828125,-1.116531372070312
20824,-0.12646484375,-0.220733642578125,-0.9903717041015624
20825,-0.150665283203125,-0.2268218994140625,-0.87738037109375
20826,-0.174163818359375,-0.21246337890625,-0.8689422607421875
20827,-0.189697265625,-0.202545166015625,-0.9135894775390624
20828,-0.2016754150390625,-0.19854736328125,-0.9657745361328124
20829,-0.204864501953125,-0.203216552734375,-1.008773803710938
20830,-0.1829986572265625,-0.2234649658203125,-1.01593017578125
20831,-0.147979736328125,-0.2562103271484375,-0.9975128173828124
20832,-0.135467529296875,-0.2589874267578125,-0.966217041015625
20833,-0.133056640625,-0.2407989501953125,-0.9523468017578124
20834,-0.134063720703125,-0.22149658203125,-0.9546966552734376
20835,-0.148712158203125,-0.198455810546875,-0.948974609375
20836,-0.1615753173828125,-0.1806640625,-0.9284820556640624
20837,-0.17474365234375,-0.1664276123046875,-0.9035186767578124
20838,-0.16668701171875,-0.168426513671875,-0.9121551513671876
20839,-0.137176513671875,-0.1832122802734375,-0.96441650390625
20840,-0.119384765625,-0.1905670166015625,-1.022964477539062
20841,-0.10986328125,-0.190826416015625,-1.055404663085938
20842,-0.1175689697265625,-0.1803436279296875,-1.04779052734375
20843,-0.1222076416015625,-0.1726531982421875,-1.014450073242188
20844,-0.1151885986328125,-0.166015625,-0.985107421875
20845,-0.11981201171875,-0.1560821533203125,-0.9742279052734376
20846,-0.13311767578125,-0.14453125,-0.97125244140625
20847,-0.1387786865234375,-0.143310546875,-0.9662322998046876
20848,-0.1350860595703125,-0.1410675048828125,-0.9701385498046876
20849,-0.1275634765625,-0.138214111328125,-0.989227294921875
20850,-0.118255615234375,-0.134063720703125,-1.002700805664062
20851,-0.113433837890625,-0.137786865234375,-0.9952239990234376
20852,-0.0974578857421875,-0.1460113525390625,-0.9907073974609376
20853,-0.079254150390625,-0.1544036865234375,-0.9934539794921876
20854,-0.08392333984375,-0.14306640625,-0.986785888671875
20855,-0.108306884765625,-0.1073150634765625,-0.988494873046875
20856,-0.1248779296875,-0.0859527587890625,-0.9858245849609376
20857,-0.1294403076171875,-0.0849609375,-0.9715423583984376
20858,-0.1291656494140625,-0.080291748046875,-0.9665069580078124
20859,-0.121337890625,-0.0762481689453125,-0.9810028076171876
20860,-0.10382080078125,-0.0870361328125,-0.9893798828125
20861,-0.086273193359375,-0.1019744873046875,-0.99676513671875
20862,-0.0717620849609375,-0.10321044921875,-1.012466430664062
20863,-0.072906494140625,-0.0916748046875,-1.039337158203125
20864,-0.0788421630859375,-0.0806121826171875,-1.045455932617188
20865,-0.07635498046875,-0.077392578125,-1.026885986328125
20866,-0.0727386474609375,-0.07635498046875,-1.007949829101562
20867,-0.0816192626953125,-0.071533203125,-1.022506713867188
20868,-0.0853271484375,-0.0683135986328125,-1.038558959960938
20869,-0.0808868408203125,-0.0688934326171875,-1.051040649414062
20870,-0.0787200927734375,-0.0570220947265625,-1.067764282226562
20871,-0.0908355712890625,-0.044586181640625,-1.057937622070312
20872,-0.1083984375,-0.0417633056640625,-1.031829833984375
20873,-0.1073455810546875,-0.0529022216796875,-1.015838623046875
20874,-0.09173583984375,-0.0745697021484375,-1.003692626953125
20875,-0.073822021484375,-0.08489990234375,-1.018707275390625
20876,-0.0731353759765625,-0.081878662109375,-1.044525146484375
20877,-0.073394775390625,-0.0706634521484375,-1.045669555664062
20878,-0.0580596923828125,-0.06561279296875,-1.0316162109375
20879,-0.037994384765625,-0.0742034912109375,-1.034500122070312
20880,-0.0275726318359375,-0.0683135986328125,-1.043243408203125
20881,-0.0239105224609375,-0.066650390625,-1.021041870117188
20882,-0.0373992919921875,-0.0650482177734375,-0.9863739013671876
20883,-0.0686492919921875,-0.0456085205078125,-0.9990386962890624
20884,-0.0815887451171875,-0.0373687744140625,-0.9901885986328124
20885,-0.0637969970703125,-0.0385894775390625,-1.00738525390625
20886,-0.0587921142578125,-0.0832366943359375,-0.977752685546875
20887,-0.048980712890625,-0.1271209716796875,-0.9662017822265624
20888,-0.0505218505859375,-0.1145172119140625,-1.0235595703125
20889,-0.0591888427734375,-0.06201171875,-1.0518798828125
20890,-0.0438995361328125,-0.04754638671875,-1.020751953125
20891,-0.019775390625,-0.0592803955078125,-1.017974853515625
20892,-0.0103912353515625,-0.0479888916015625,-1.021987915039062
20893,-0.0234527587890625,-0.0580596923828125,-0.9801177978515624
20894,-0.0419158935546875,-0.08819580078125,-0.990753173828125
20895,-0.0389862060546875,-0.101959228515625,-1.015396118164062
20896,-0.047607421875,-0.1234130859375,-1.003463745117188
20897,-0.078857421875,-0.1390228271484375,-0.9863128662109376
20898,-0.10504150390625,-0.1219635009765625,-0.97406005859375
20899,-0.095977783203125,-0.09710693359375,-0.967010498046875
20900,-0.0675506591796875,-0.1000518798828125,-0.9603729248046876
20901,-0.04290771484375,-0.1263427734375,-0.9686737060546876
20902,-0.0317840576171875,-0.101409912109375,-0.979156494140625
20903,-0.05999755859375,-0.11932373046875,-1.00811767578125
20904,-0.087249755859375,-0.147491455078125,-1.0030517578125
20905,-0.0938568115234375,-0.1744842529296875,-0.996917724609375
20906,-0.0664520263671875,-0.1588134765625,-0.999237060546875
20907,-0.05364990234375,-0.1138916015625,-1.019271850585938
20908,-0.0519256591796875,-0.1042327880859375,-1.0224609375
20909,-0.05712890625,-0.099884033203125,-1.009841918945312
20910,-0.0749969482421875,-0.1247100830078125,-1.00518798828125
20911,-0.080780029296875,-0.122100830078125,-1.016815185546875
20912,-0.079986572265625,-0.14520263671875,-1.01678466796875
20913,-0.091461181640625,-0.171661376953125,-0.9901123046875
20914,-0.08978271484375,-0.1680755615234375,-0.9519805908203124
20915,-0.075225830078125,-0.1429595947265625,-0.956695556640625
20916,-0.075836181640625,-0.112884521484375,-0.9867095947265624
20917,-0.08709716796875,-0.0966949462890625,-0.9936676025390624
20918,-0.076019287109375,-0.104736328125,-0.9877471923828124
20919,-0.04498291015625,-0.122283935546875,-0.9456024169921876
20920,-0.0349273681640625,-0.1428985595703125,-0.920623779296875
20921,-0.056243896484375,-0.11676025390625,-0.9478912353515624
20922,-0.04266357421875,-0.0965576171875,-1.008544921875
20923,-0.068389892578125,0.015106201171875,-1.0352783203125
20924,-0.0911102294921875,0.025726318359375,-1.091323852539062
20925,-0.0837860107421875,0.0077362060546875,-0.9991607666015624
20926,-0.076141357421875,-0.015350341796875,-0.8527069091796875
20927,-0.0799407958984375,-0.0769500732421875,-0.92919921875
20928,-0.06707763671875,-0.081573486328125,-1.00103759765625
20929,-0.051483154296875,-0.0777740478515625,-1.0369873046875
20930,-0.0384368896484375,-0.0855560302734375,-1.069442749023438
20931,-0.0416107177734375,-0.081329345703125,-1.024505615234375
20932,-0.0378570556640625,-0.0897064208984375,-0.9474029541015624
20933,-0.036865234375,-0.1073760986328125,-0.9647369384765624
20934,-0.0462188720703125,-0.1056671142578125,-1.043670654296875
20935,-0.06390380859375,-0.078643798828125,-1.103042602539062
20936,-0.0853118896484375,-0.03875732421875,-1.121795654296875
20937,-0.07269287109375,-0.0085296630859375,-1.10009765625
20938,-0.0541839599609375,-0.0204010009765625,-1.007293701171875
20939,-0.0005340576171875,-0.089691162109375,-0.9205322265625
20940,0.0547332763671875,-0.171844482421875,-0.8761749267578125
20941,0.113922119140625,-0.2502899169921875,-0.86517333984375
20942,0.1405487060546875,-0.3087921142578125,-0.875640869140625
20943,0.1217803955078125,-0.3180694580078125,-0.856964111328125
20944,0.104339599609375,-0.290740966796875,-0.8231353759765625
20945,0.1189117431640625,-0.282928466796875,-0.838104248046875
20946,0.1543426513671875,-0.29803466796875,-0.8763275146484375
20947,0.1830596923828125,-0.3100738525390625,-0.92828369140625
20948,0.1874237060546875,-0.293731689453125,-1.010482788085938
20949,0.1479034423828125,-0.2648773193359375,-1.095855712890625
20950,0.0566253662109375,-0.2125396728515625,-1.075332641601562
20951,-0.0258331298828125,-0.1570892333984375,-0.9497833251953124
20952,-0.0628662109375,-0.1342620849609375,-0.86114501953125
20953,-0.0356597900390625,-0.1443634033203125,-0.8295135498046875
20954,-0.001861572265625,-0.1774444580078125,-0.830535888671875
20955,0.0161285400390625,-0.2171173095703125,-0.9024658203125
20956,0.0331573486328125,-0.214599609375,-0.93792724609375
20957,0.055633544921875,-0.1913604736328125,-0.9432830810546876
20958,0.0960693359375,-0.1641387939453125,-0.9755859375
20959,0.1810760498046875,-0.121124267578125,-1.020950317382812
20960,0.2433013916015625,-0.06512451171875,-1.286117553710938
20961,0.1991119384765625,-0.093170166015625,-1.316497802734375
20962,0.1602935791015625,-0.159759521484375,-1.226119995117188
20963,0.1065521240234375,-0.2293853759765625,-1.022750854492188
20964,0.0532073974609375,-0.25604248046875,-0.9161834716796876
20965,0.0187225341796875,-0.235321044921875,-0.9029693603515624
20966,0.0120391845703125,-0.2121429443359375,-0.868621826171875
20967,0.032318115234375,-0.2050323486328125,-0.8379364013671875
20968,0.03515625,-0.2118072509765625,-0.8250732421875
20969,0.0076751708984375,-0.2262420654296875,-0.7636566162109375
20970,0.0142974853515625,-0.261077880859375,-0.7203369140625
20971,0.0810546875,-0.3165435791015625,-0.793975830078125
20972,0.12921142578125,-0.38848876953125,-0.92095947265625
20973,0.13165283203125,-0.4200286865234375,-0.990142822265625
20974,0.1128082275390625,-0.4072418212890625,-1.034347534179688
20975,0.0926513671875,-0.3790283203125,-1.035934448242188
20976,0.0770111083984375,-0.3344879150390625,-0.989166259765625
20977,0.0691375732421875,-0.2964935302734375,-0.9276885986328124
20978,0.06463623046875,-0.293609619140625,-0.9365997314453124
20979,0.056610107421875,-0.29852294921875,-0.9381561279296876
20980,0.067230224609375,-0.3345489501953125,-0.9427490234375
20981,0.1068572998046875,-0.37640380859375,-1.027603149414062
20982,0.1067047119140625,-0.3854217529296875,-1.003875732421875
20983,0.0339202880859375,-0.387664794921875,-0.81097412109375
20984,-0.06158447265625,-0.3974609375,-0.666046142578125
20985,-0.1167144775390625,-0.3518218994140625,-0.7454071044921875
20986,-0.0969696044921875,-0.301544189453125,-0.921234130859375
20987,-0.01593017578125,-0.306182861328125,-1.020233154296875
20988,0.1002960205078125,-0.3352813720703125,-1.00390625
20989,0.1841583251953125,-0.372406005859375,-0.942779541015625
20990,0.2156829833984375,-0.4059600830078125,-0.864593505859375
20991,0.21112060546875,-0.3717498779296875,-0.7742919921875
20992,0.1783905029296875,-0.256072998046875,-0.7136383056640625
20993,0.162628173828125,-0.089111328125,-0.688873291015625
20994,0.153961181640625,0.0251312255859375,-0.6494598388671875
20995,0.1646575927734375,0.0455474853515625,-0.66094970703125
20996,0.169281005859375,-0.040924072265625,-0.6659698486328125
20997,0.2119598388671875,-0.1171722412109375,-0.742950439453125
20998,0.3290252685546875,-0.08905029296875,-0.74591064453125
20999,0.476470947265625,-0.0299835205078125,-0.645538330078125
21000,0.571197509765625,-0.021087646484375,-0.6230621337890625
21001,0.6585845947265625,-0.07415771484375,-0.6598358154296875
21002,0.727783203125,-0.1301727294921875,-0.6569366455078125
21003,0.7918701171875,-0.19921875,-0.638031005859375
21004,0.742340087890625,-0.360626220703125,-0.8463897705078125
21005,0.532073974609375,-0.6790924072265625,-1.040969848632812
21006,0.6370849609375,-0.6275634765625,-0.525054931640625
21007,0.71820068359375,-0.4274139404296875,-0.4276580810546875
21008,0.8075103759765625,-0.245758056640625,-0.5184783935546875
21009,0.869598388671875,-0.2097625732421875,-0.6707916259765625
21010,0.953369140625,-0.226806640625,-0.7585601806640625
21011,1.028564453125,-0.2731475830078125,-0.6631317138671875
21012,0.981109619140625,-0.2616729736328125,-0.4194183349609375
21013,0.9772796630859376,-0.31011962890625,-0.3715972900390625
21014,0.942169189453125,-0.3386688232421875,-0.42987060546875
21015,0.789520263671875,-0.2228851318359375,-0.5125885009765625
21016,0.6199798583984375,-0.0501861572265625,-0.58453369140625
21017,0.6092071533203125,0.0985870361328125,-0.5638580322265625
21018,0.6717987060546875,0.15753173828125,-0.4671478271484375
21019,0.7893829345703125,0.1476898193359375,-0.3466796875
21020,0.9631805419921876,0.1651611328125,-0.2542266845703125
21021,1.107864379882812,0.2828369140625,-0.22100830078125
21022,1.15496826171875,0.4281158447265625,-0.209075927734375
21023,1.149368286132812,0.4890594482421875,-0.217620849609375
21024,1.137344360351562,0.435028076171875,-0.26104736328125
21025,1.144363403320312,0.3148345947265625,-0.337310791015625
21026,1.148818969726562,0.078582763671875,-0.379669189453125
21027,1.136062622070312,-0.1218719482421875,-0.3490142822265625
21028,1.165634155273438,-0.10015869140625,-0.3324127197265625
21029,1.211685180664062,0.055755615234375,-0.2769317626953125
21030,1.257904052734375,0.20098876953125,-0.1553497314453125
21031,1.303390502929688,0.3335418701171875,-0.0659332275390625
21032,1.334747314453125,0.4130706787109375,0.0309600830078125
21033,1.342147827148438,0.402435302734375,0.0774993896484375
21034,1.350112915039062,0.31439208984375,0.0258026123046875
21035,1.372482299804688,0.1353302001953125,-0.118560791015625
21036,1.376388549804688,-0.121978759765625,-0.2308349609375
21037,1.347915649414062,-0.2328033447265625,-0.237335205078125
21038,1.324478149414062,-0.15203857421875,-0.231414794921875
21039,1.2867431640625,0.0182647705078125,-0.165924072265625
21040,1.2486572265625,0.140228271484375,-0.0637969970703125
21041,1.208267211914062,0.2120361328125,0.01416015625
21042,1.148223876953125,0.291168212890625,0.0462188720703125
21043,1.084945678710938,0.3252410888671875,0.058990478515625
21044,1.05084228515625,0.229949951171875,0.0211639404296875
21045,1.063583374023438,0.0837860107421875,-0.0700531005859375
21046,1.090911865234375,-0.030120849609375,-0.126800537109375
21047,1.086044311523438,-0.03143310546875,-0.12957763671875
21048,1.0833740234375,0.054290771484375,-0.104827880859375
21049,1.055618286132812,0.18231201171875,-0.0898895263671875
21050,1.040863037109375,0.3264617919921875,-0.0352630615234375
21051,1.094757080078125,0.4243011474609375,-0.0020904541015625
21052,1.132308959960938,0.4487457275390625,0.0266265869140625
21053,1.117080688476562,0.37701416015625,-0.0401611328125
21054,1.081375122070312,0.2049560546875,-0.153045654296875
21055,1.013259887695312,0.09051513671875,-0.18218994140625
21056,0.931304931640625,0.052276611328125,-0.247589111328125
21057,0.8218994140625,0.025726318359375,-0.6001434326171875
21058,0.690216064453125,0.1254425048828125,-0.7189788818359375
21059,0.6780242919921875,0.3007965087890625,-0.4552459716796875
21060,0.6920013427734375,0.31988525390625,-0.1611175537109375
21061,0.6810150146484375,0.3238372802734375,-0.061737060546875
21062,0.7163238525390625,0.3758697509765625,-0.036590576171875
21063,0.766998291015625,0.3934326171875,-0.0445709228515625
21064,0.8145599365234375,0.3968505859375,-0.0482025146484375
21065,0.8228607177734375,0.427398681640625,-0.011322021484375
21066,0.826263427734375,0.4760284423828125,0.033294677734375
21067,0.7974395751953125,0.544647216796875,0.045501708984375
21068,0.720123291015625,0.6044464111328125,0.0423431396484375
21069,0.597442626953125,0.6416168212890625,0.0201263427734375
21070,0.516143798828125,0.685791015625,0.0544586181640625
21071,0.4894866943359375,0.7117462158203125,0.0581207275390625
21072,0.5531158447265625,0.719207763671875,0.1168365478515625
21073,0.69378662109375,0.7009735107421875,0.297821044921875
21074,0.7071075439453125,0.6020965576171875,0.4397125244140625
21075,0.67498779296875,0.4894561767578125,0.2321014404296875
21076,0.7225341796875,0.5561676025390625,0.0955657958984375
21077,0.5581512451171875,0.5764617919921875,-0.049102783203125
21078,0.342376708984375,0.631866455078125,-0.0066986083984375
21079,0.36187744140625,0.8355712890625,0.060699462890625
21080,0.348175048828125,0.964080810546875,0.076629638671875
21081,0.3983001708984375,0.935821533203125,0.1628570556640625
21082,0.800018310546875,0.9774322509765624,0.103240966796875
21083,1.215728759765625,0.8645172119140625,0.0510711669921875
21084,1.347747802734375,0.7777252197265625,0.069488525390625
21085,1.049484252929688,0.704833984375,0.1552581787109375
21086,0.6011962890625,0.6845245361328125,0.1743316650390625
21087,0.38299560546875,0.7095794677734375,0.0500946044921875
21088,0.3750457763671875,0.7137603759765625,-0.0605621337890625
21089,0.471832275390625,0.79766845703125,0.066986083984375
21090,0.5733642578125,0.9611053466796876,0.267242431640625
21091,0.58160400390625,1.1719970703125,0.429229736328125
21092,0.458282470703125,1.419784545898438,0.4898834228515625
21093,0.1862640380859375,1.589492797851562,0.44989013671875
21094,0.054656982421875,1.59368896484375,0.2653045654296875
21095,0.0979156494140625,1.322479248046875,0.154144287109375
21096,0.131439208984375,1.0989990234375,0.11370849609375
21097,0.2404327392578125,0.9943389892578124,0.11993408203125
21098,0.3733367919921875,0.9317779541015624,0.0805816650390625
21099,0.39056396484375,0.880828857421875,0.0243072509765625
21100,0.403228759765625,0.9021148681640624,-0.0153350830078125
21101,0.350616455078125,0.913177490234375,-0.0007171630859375
21102,0.2108001708984375,0.8486480712890625,-0.0160064697265625
21103,0.10125732421875,0.7792205810546875,-0.1625823974609375
21104,-0.0576019287109375,0.5082550048828125,-0.287506103515625
21105,-0.184906005859375,0.2302398681640625,-0.37652587890625
21106,-0.2148590087890625,0.0025177001953125,-0.1863555908203125
21107,-0.1815032958984375,-0.2254180908203125,0.30615234375
21108,-0.1014404296875,-0.2769927978515625,0.5908203125
21109,-0.0791015625,-0.13299560546875,0.3921661376953125
21110,-0.0280609130859375,0.11724853515625,0.1746368408203125
21111,0.023773193359375,0.33941650390625,0.0688323974609375
21112,0.082061767578125,0.5928497314453125,0.0697174072265625
21113,0.200897216796875,1.017898559570312,0.116668701171875
21114,0.216766357421875,1.172866821289062,0.0782623291015625
21115,0.1982421875,1.127975463867188,0.05908203125
21116,0.2719573974609375,1.432785034179688,0.22686767578125
21117,0.2854156494140625,1.542282104492188,0.26605224609375
21118,0.2713775634765625,1.730300903320312,0.24639892578125
21119,0.3133697509765625,2.56658935546875,0.1607208251953125
21120,0.1971588134765625,3.537689208984375,0.0400238037109375
21121,-0.2058258056640625,3.576004028320312,0.2081451416015625
21122,-0.4565277099609375,2.19232177734375,0.1837921142578125
21123,-0.1117095947265625,0.8022308349609375,0.1876373291015625
21124,0.592437744140625,-0.05157470703125,0.1258392333984375
21125,-0.0179290771484375,0.3864898681640625,0.1569366455078125
21126,-0.1329803466796875,1.308090209960938,0.2070159912109375
21127,0.0699005126953125,1.34991455078125,0.2781829833984375
21128,0.2236175537109375,1.227798461914062,0.2276458740234375
21129,0.2445220947265625,1.0728759765625,0.1383209228515625
21130,0.186859130859375,0.9377288818359376,0.11846923828125
21131,0.1117401123046875,0.8550262451171875,0.133544921875
21132,0.0656890869140625,0.8289794921875,0.0817718505859375
21133,0.0586700439453125,0.8933868408203125,0.006805419921875
21134,0.067657470703125,0.9461669921875,0.0156707763671875
21135,0.067230224609375,0.9124298095703124,0.083160400390625
21136,0.055908203125,0.85992431640625,0.1192169189453125
21137,0.0067596435546875,0.9278411865234376,0.1093902587890625
21138,-0.0457305908203125,1.107315063476562,0.12945556640625
21139,-0.045257568359375,1.150726318359375,0.1741943359375
21140,-0.043701171875,1.031707763671875,0.16546630859375
21141,-0.0410919189453125,0.9954681396484376,0.158935546875
21142,-0.02532958984375,0.989471435546875,0.1342620849609375
21143,-0.0045623779296875,0.9800567626953124,0.112152099609375
21144,0.011383056640625,0.9886932373046876,0.1124420166015625
21145,0.0164642333984375,1.004440307617188,0.123870849609375
21146,0.019805908203125,1.012130737304688,0.1255645751953125
21147,0.0225677490234375,1.011947631835938,0.11505126953125
21148,0.023834228515625,1.00689697265625,0.1040496826171875
21149,0.0289459228515625,0.9994354248046876,0.1014862060546875
21150,0.0404510498046875,0.9976348876953124,0.111724853515625
21151,0.0535125732421875,0.9996185302734376,0.1301422119140625
21152,0.0643463134765625,1.000381469726562,0.1452484130859375
21153,0.0703582763671875,0.9974822998046876,0.1531982421875
21154,0.075164794921875,0.9935455322265624,0.15234375
21155,0.07720947265625,0.98919677734375,0.14764404296875
21156,0.07281494140625,0.9832000732421876,0.1424713134765625
21157,0.06756591796875,0.9782562255859376,0.1408538818359375
21158,0.064697265625,0.9755706787109376,0.1407318115234375
21159,0.066314697265625,0.9783477783203124,0.1436767578125
21160,0.06707763671875,0.9828338623046876,0.150146484375
21161,0.0668487548828125,0.985198974609375,0.1588134765625
21162,0.066497802734375,0.9822998046875,0.1658172607421875
21163,0.06597900390625,0.9790802001953124,0.1668701171875
21164,0.067047119140625,0.980712890625,0.163787841796875
21165,0.0686187744140625,0.989410400390625,0.1562347412109375
21166,0.071624755859375,0.9976959228515624,0.1460723876953125
21167,0.07568359375,1.0008544921875,0.139007568359375
21168,0.0776824951171875,1.001007080078125,0.13446044921875
21169,0.0778045654296875,0.9984588623046876,0.1370086669921875
21170,0.075347900390625,0.995880126953125,0.144073486328125
21171,0.06719970703125,0.9937744140625,0.15069580078125
21172,0.05450439453125,0.989593505859375,0.154541015625
21173,0.0400238037109375,0.986083984375,0.15985107421875
21174,0.0246124267578125,0.9824371337890624,0.1647491455078125
21175,0.0118255615234375,0.9792327880859376,0.1716156005859375
21176,0.0040740966796875,0.9771575927734376,0.1809539794921875
21177,0.001800537109375,0.9741363525390624,0.1881103515625
21178,0.0040435791015625,0.972381591796875,0.190185546875
21179,0.0081787109375,0.970184326171875,0.188079833984375
21180,0.0129852294921875,0.970428466796875,0.1848602294921875
21181,0.01513671875,0.9723663330078124,0.1833953857421875
21182,0.01220703125,0.972991943359375,0.1820831298828125
21183,0.0034942626953125,0.966827392578125,0.1797943115234375
21184,-0.0110931396484375,0.9562530517578124,0.1750946044921875
21185,-0.026702880859375,0.9486846923828124,0.173248291015625
21186,-0.0446014404296875,0.946197509765625,0.1783294677734375
21187,-0.060577392578125,0.949951171875,0.189300537109375
21188,-0.0731201171875,0.9554290771484376,0.199737548828125
21189,-0.0814056396484375,0.9605255126953124,0.2067108154296875
21190,-0.0816497802734375,0.966583251953125,0.2115020751953125
21191,-0.0787200927734375,0.9745025634765624,0.215118408203125
21192,-0.0746917724609375,0.9796600341796876,0.2122802734375
21193,-0.0704803466796875,0.976043701171875,0.2073974609375
21194,-0.0668792724609375,0.9698638916015624,0.204498291015625
21195,-0.0602264404296875,0.9685821533203124,0.2030487060546875
21196,-0.0552520751953125,0.9710693359375,0.2074737548828125
21197,-0.05108642578125,0.973358154296875,0.2126617431640625
21198,-0.04901123046875,0.97161865234375,0.2165985107421875
21199,-0.046356201171875,0.9700164794921876,0.215911865234375
21200,-0.0457305908203125,0.969482421875,0.2124481201171875
21201,-0.0483551025390625,0.9711761474609376,0.208038330078125
21202,-0.0523681640625,0.9775848388671876,0.206024169921875
21203,-0.0570526123046875,0.9838104248046876,0.2067108154296875
21204,-0.062957763671875,0.9874114990234376,0.2082672119140625
21205,-0.0678253173828125,0.9853363037109376,0.2033538818359375
21206,-0.073394775390625,0.977264404296875,0.1940765380859375
21207,-0.0815582275390625,0.9688873291015624,0.19097900390625
21208,-0.0879974365234375,0.962310791015625,0.186309814453125
21209,-0.09259033203125,0.959197998046875,0.1882171630859375
21210,-0.0957183837890625,0.95843505859375,0.19439697265625
21211,-0.098114013671875,0.9560089111328124,0.1993255615234375
21212,-0.0995635986328125,0.9534759521484376,0.2058868408203125
21213,-0.101898193359375,0.951629638671875,0.2124481201171875
21214,-0.1076507568359375,0.949951171875,0.2198944091796875
21215,-0.1181640625,0.947357177734375,0.2259979248046875
21216,-0.13037109375,0.94171142578125,0.2298126220703125
21217,-0.1414642333984375,0.9354400634765624,0.2320709228515625
21218,-0.151153564453125,0.941131591796875,0.233734130859375
21219,-0.1607208251953125,0.953948974609375,0.23663330078125
21220,-0.168365478515625,0.9627227783203124,0.2416229248046875
21221,-0.169281005859375,0.963897705078125,0.2441253662109375
21222,-0.1609039306640625,0.9628143310546876,0.2471771240234375
21223,-0.1481475830078125,0.964691162109375,0.248321533203125
21224,-0.137298583984375,0.9683837890625,0.2473297119140625
21225,-0.12884521484375,0.9655303955078124,0.2396697998046875
21226,-0.12353515625,0.9597015380859376,0.234619140625
21227,-0.1198883056640625,0.9562530517578124,0.22747802734375
21228,-0.1174163818359375,0.957305908203125,0.2225341796875
21229,-0.115814208984375,0.9605560302734376,0.2212066650390625
21230,-0.1143035888671875,0.9641265869140624,0.2192840576171875
21231,-0.1149444580078125,0.9662628173828124,0.2182159423828125
21232,-0.114166259765625,0.969573974609375,0.213714599609375
21233,-0.11541748046875,0.9730377197265624,0.2090301513671875
21234,-0.121002197265625,0.9749603271484376,0.205963134765625
21235,-0.12774658203125,0.9730987548828124,0.2037353515625
21236,-0.1327362060546875,0.9695587158203124,0.2060699462890625
21237,-0.134033203125,0.9662628173828124,0.2105712890625
21238,-0.132293701171875,0.9633026123046876,0.217437744140625
21239,-0.1305694580078125,0.9614715576171876,0.222320556640625
21240,-0.1295623779296875,0.961151123046875,0.225555419921875
21241,-0.1298980712890625,0.9599609375,0.226043701171875
21242,-0.12847900390625,0.960296630859375,0.224700927734375
21243,-0.124542236328125,0.9597930908203124,0.2224578857421875
21244,-0.119171142578125,0.9589996337890624,0.2200164794921875
21245,-0.1117401123046875,0.95660400390625,0.2152252197265625
21246,-0.1045379638671875,0.9580230712890624,0.2136383056640625
21247,-0.101287841796875,0.96343994140625,0.2134552001953125
21248,-0.10394287109375,0.9665679931640624,0.2142486572265625
21249,-0.1084136962890625,0.969329833984375,0.2143402099609375
21250,-0.113922119140625,0.97381591796875,0.2173004150390625
21251,-0.12017822265625,0.974517822265625,0.2236175537109375
21252,-0.12457275390625,0.9700164794921876,0.2301025390625
21253,-0.123504638671875,0.96331787109375,0.2343902587890625
21254,-0.1186676025390625,0.9586639404296876,0.240386962890625
21255,-0.1115570068359375,0.9558258056640624,0.2421722412109375
21256,-0.1064605712890625,0.956085205078125,0.24041748046875
21257,-0.1043548583984375,0.9581451416015624,0.23870849609375
21258,-0.106292724609375,0.9595794677734376,0.233062744140625
21259,-0.106353759765625,0.960662841796875,0.227508544921875
21260,-0.1032257080078125,0.9672698974609376,0.225433349609375
21261,-0.09893798828125,0.9705352783203124,0.226959228515625
21262,-0.093505859375,0.9713592529296876,0.2285614013671875
21263,-0.0884857177734375,0.9698944091796876,0.2301788330078125
21264,-0.086090087890625,0.9670257568359376,0.2318878173828125
21265,-0.087188720703125,0.9614105224609376,0.232330322265625
21266,-0.0899810791015625,0.9560546875,0.2296905517578125
21267,-0.0917816162109375,0.9582672119140624,0.228729248046875
21268,-0.09130859375,0.96551513671875,0.231903076171875
21269,-0.0915069580078125,0.969390869140625,0.2347869873046875
21270,-0.0904083251953125,0.967498779296875,0.237335205078125
21271,-0.08941650390625,0.964263916015625,0.2368621826171875
21272,-0.0894622802734375,0.9625091552734376,0.23675537109375
21273,-0.0916900634765625,0.96343994140625,0.235137939453125
21274,-0.095672607421875,0.9654388427734376,0.2353057861328125
21275,-0.1003265380859375,0.965301513671875,0.2355194091796875
21276,-0.1021728515625,0.9644622802734376,0.2344207763671875
21277,-0.10430908203125,0.96185302734375,0.2303314208984375
21278,-0.1044769287109375,0.96173095703125,0.229644775390625
21279,-0.105712890625,0.963043212890625,0.2283782958984375
21280,-0.1089630126953125,0.9651336669921876,0.227874755859375
21281,-0.11187744140625,0.9662322998046876,0.22857666015625
21282,-0.117340087890625,0.9659576416015624,0.228240966796875
21283,-0.1224365234375,0.965087890625,0.2282867431640625
21284,-0.125030517578125,0.96490478515625,0.230224609375
21285,-0.1251220703125,0.9656524658203124,0.2335357666015625
21286,-0.123260498046875,0.9650421142578124,0.236328125
21287,-0.120361328125,0.963165283203125,0.238250732421875
21288,-0.11663818359375,0.961456298828125,0.2417449951171875
21289,-0.1126556396484375,0.96197509765625,0.2430419921875
21290,-0.1109161376953125,0.96282958984375,0.239227294921875
21291,-0.1092681884765625,0.96527099609375,0.233154296875
21292,-0.107177734375,0.9648895263671876,0.227081298828125
21293,-0.10296630859375,0.9652099609375,0.223236083984375
21294,-0.1002197265625,0.9650726318359376,0.2227935791015625
21295,-0.099151611328125,0.9669036865234376,0.223388671875
21296,-0.09954833984375,0.9688568115234376,0.2264251708984375
21297,-0.10186767578125,0.96893310546875,0.2300567626953125
21298,-0.10546875,0.9653778076171876,0.2335357666015625
21299,-0.1059112548828125,0.9620208740234376,0.23675537109375
21300,-0.104736328125,0.9637451171875,0.2378997802734375
21301,-0.105438232421875,0.9635467529296876,0.2392578125
21302,-0.10589599609375,0.9613189697265624,0.2392578125
21303,-0.1072998046875,0.9586181640625,0.2356109619140625
21304,-0.107879638671875,0.9599456787109376,0.2327423095703125
21305,-0.1053314208984375,0.9617156982421876,0.229400634765625
21306,-0.104400634765625,0.9656524658203124,0.2276611328125
21307,-0.1038055419921875,0.967315673828125,0.227813720703125
21308,-0.103546142578125,0.9668426513671876,0.22772216796875
21309,-0.1041107177734375,0.9655914306640624,0.2290496826171875
21310,-0.1060028076171875,0.9642181396484376,0.2298583984375
21311,-0.1074371337890625,0.9636688232421876,0.2317352294921875
21312,-0.109710693359375,0.963623046875,0.2353515625
21313,-0.1113433837890625,0.9649658203125,0.238861083984375
21314,-0.1114501953125,0.9653472900390624,0.2412109375
21315,-0.1107635498046875,0.9639892578125,0.2423095703125
21316,-0.108062744140625,0.960601806640625,0.242584228515625
21317,-0.10491943359375,0.959197998046875,0.2425384521484375
21318,-0.1019287109375,0.959075927734375,0.2416839599609375
21319,-0.10003662109375,0.9618682861328124,0.2391815185546875
21320,-0.100555419921875,0.963958740234375,0.2359466552734375
21321,-0.10101318359375,0.9658966064453124,0.231964111328125
21322,-0.1007537841796875,0.96746826171875,0.2297821044921875
21323,-0.101165771484375,0.9674835205078124,0.2292633056640625
21324,-0.1002655029296875,0.968780517578125,0.23175048828125
21325,-0.0989532470703125,0.9678497314453124,0.233642578125
21326,-0.09832763671875,0.962860107421875,0.2337646484375
21327,-0.09832763671875,0.959747314453125,0.2336273193359375
21328,-0.101776123046875,0.958160400390625,0.2335968017578125
21329,-0.1067047119140625,0.958740234375,0.23590087890625
21330,-0.1092529296875,0.9612884521484376,0.2376556396484375
21331,-0.110565185546875,0.9638824462890624,0.23876953125
21332,-0.114105224609375,0.963470458984375,0.24005126953125
21333,-0.115234375,0.963134765625,0.2396392822265625
21334,-0.114288330078125,0.96246337890625,0.2383270263671875
21335,-0.1124725341796875,0.96258544921875,0.2353057861328125
21336,-0.1120758056640625,0.966644287109375,0.232421875
21337,-0.111297607421875,0.9693756103515624,0.228363037109375
21338,-0.111175537109375,0.969818115234375,0.2238616943359375
21339,-0.1099853515625,0.9697265625,0.221343994140625
21340,-0.1074981689453125,0.9707794189453124,0.218841552734375
21341,-0.1065673828125,0.97088623046875,0.2183837890625
21342,-0.104248046875,0.9698486328125,0.2189483642578125
21343,-0.1021728515625,0.967742919921875,0.21966552734375
21344,-0.1007537841796875,0.9676361083984376,0.222412109375
21345,-0.1011505126953125,0.9656982421875,0.2263336181640625
21346,-0.0985870361328125,0.9611053466796876,0.2298583984375
21347,-0.0958709716796875,0.9588470458984376,0.234771728515625
21348,-0.093902587890625,0.9582977294921876,0.2379608154296875
21349,-0.0942535400390625,0.955780029296875,0.2381744384765625
21350,-0.0988006591796875,0.95635986328125,0.2374267578125
21351,-0.10333251953125,0.959564208984375,0.23382568359375
21352,-0.1071319580078125,0.9635162353515624,0.229736328125
21353,-0.1107177734375,0.9648284912109376,0.226043701171875
21354,-0.1126861572265625,0.96453857421875,0.2238311767578125
21355,-0.11309814453125,0.9631500244140624,0.2229156494140625
21356,-0.1150970458984375,0.96453857421875,0.2212066650390625
21357,-0.1174163818359375,0.96728515625,0.2211151123046875
21358,-0.121856689453125,0.9684906005859376,0.2252349853515625
21359,-0.127227783203125,0.9663543701171876,0.229339599609375
21360,-0.130889892578125,0.9636077880859376,0.2313385009765625
21361,-0.1291961669921875,0.962982177734375,0.2346343994140625
21362,-0.1273345947265625,0.96307373046875,0.2352142333984375
21363,-0.1259002685546875,0.9631500244140624,0.235626220703125
21364,-0.124908447265625,0.96038818359375,0.2382659912109375
21365,-0.1214447021484375,0.9571075439453124,0.2368621826171875
21366,-0.1178741455078125,0.9576568603515624,0.234619140625
21367,-0.1187591552734375,0.959014892578125,0.2313232421875
21368,-0.12225341796875,0.9603729248046876,0.22735595703125
21369,-0.12835693359375,0.95947265625,0.225555419921875
21370,-0.1331024169921875,0.95721435546875,0.224609375
21371,-0.137969970703125,0.955413818359375,0.22784423828125
21372,-0.1412200927734375,0.955291748046875,0.2328338623046875
21373,-0.145111083984375,0.956207275390625,0.234710693359375
21374,-0.14752197265625,0.9592132568359376,0.2378082275390625
21375,-0.1488800048828125,0.96075439453125,0.2413330078125
21376,-0.147247314453125,0.9625244140625,0.2441558837890625
21377,-0.143218994140625,0.9637908935546876,0.243865966796875
21378,-0.1405487060546875,0.9649200439453124,0.2423553466796875
21379,-0.1368408203125,0.964447021484375,0.238525390625
21380,-0.133941650390625,0.9642181396484376,0.232086181640625
21381,-0.13372802734375,0.961700439453125,0.22613525390625
21382,-0.1334228515625,0.9586639404296876,0.223876953125
21383,-0.12847900390625,0.958740234375,0.2229766845703125
21384,-0.123565673828125,0.9614105224609376,0.223602294921875
21385,-0.122283935546875,0.9608154296875,0.2232513427734375
21386,-0.1252593994140625,0.9600372314453124,0.2246551513671875
21387,-0.135009765625,0.9597625732421876,0.22381591796875
21388,-0.150146484375,0.9601593017578124,0.2231597900390625
21389,-0.165863037109375,0.96075439453125,0.223236083984375
21390,-0.17919921875,0.960601806640625,0.2228240966796875
21391,-0.1850433349609375,0.9622802734375,0.2234344482421875
21392,-0.184906005859375,0.9636077880859376,0.2234039306640625
21393,-0.17852783203125,0.9620513916015624,0.2224578857421875
21394,-0.1694183349609375,0.960235595703125,0.22332763671875
21395,-0.159698486328125,0.95989990234375,0.22442626953125
21396,-0.151123046875,0.963775634765625,0.2271575927734375
21397,-0.1464080810546875,0.9668121337890624,0.2275238037109375
21398,-0.1417236328125,0.9661712646484376,0.225372314453125
21399,-0.1339874267578125,0.9667510986328124,0.2220306396484375
21400,-0.118408203125,0.96942138671875,0.2224884033203125
21401,-0.0995330810546875,0.971221923828125,0.224029541015625
21402,-0.07867431640625,0.9716033935546876,0.2255401611328125
21403,-0.056549072265625,0.9694976806640624,0.2292938232421875
21404,-0.035369873046875,0.9661407470703124,0.2283935546875
21405,-0.0196990966796875,0.9613800048828124,0.2255401611328125
21406,-0.0096435546875,0.957672119140625,0.21990966796875
21407,-0.002532958984375,0.9617156982421876,0.2145843505859375
21408,0.0002288818359375,0.968353271484375,0.21429443359375
21409,-0.0015411376953125,0.97052001953125,0.212799072265625
21410,-0.006134033203125,0.969696044921875,0.211822509765625
21411,-0.0108795166015625,0.9686737060546876,0.2132720947265625
21412,-0.016143798828125,0.9736785888671876,0.2164764404296875
21413,-0.0197296142578125,0.9806671142578124,0.2191619873046875
21414,-0.022796630859375,0.978759765625,0.221221923828125
21415,-0.0257415771484375,0.9766387939453124,0.224884033203125
21416,-0.02960205078125,0.9757843017578124,0.2265167236328125
21417,-0.03472900390625,0.9748687744140624,0.22955322265625
21418,-0.0440826416015625,0.974395751953125,0.2329559326171875
21419,-0.0542449951171875,0.971343994140625,0.2352142333984375
21420,-0.061279296875,0.964599609375,0.23675537109375
21421,-0.06817626953125,0.9603424072265624,0.23834228515625
21422,-0.07305908203125,0.9575958251953124,0.2387847900390625
21423,-0.0813751220703125,0.9544677734375,0.237701416015625
21424,-0.0965576171875,0.9496002197265624,0.2368011474609375
21425,-0.117919921875,0.9512786865234376,0.237030029296875
21426,-0.1401519775390625,0.9615936279296876,0.2381134033203125
21427,-0.160064697265625,0.96990966796875,0.2406768798828125
21428,-0.1736602783203125,0.9722442626953124,0.2441864013671875
21429,-0.1784515380859375,0.966796875,0.245880126953125
21430,-0.1769561767578125,0.9619903564453124,0.244354248046875
21431,-0.172393798828125,0.9649810791015624,0.2433624267578125
21432,-0.166961669921875,0.9679107666015624,0.2404632568359375
21433,-0.1600799560546875,0.9644927978515624,0.2356109619140625
21434,-0.1513214111328125,0.956939697265625,0.2292938232421875
21435,-0.1438446044921875,0.95367431640625,0.2257843017578125
21436,-0.140960693359375,0.9548492431640624,0.223785400390625
21437,-0.1364898681640625,0.9576416015625,0.2248382568359375
21438,-0.127532958984375,0.9629974365234376,0.2249298095703125
21439,-0.1165313720703125,0.969329833984375,0.2297515869140625
21440,-0.10968017578125,0.97308349609375,0.2333984375
21441,-0.104827880859375,0.9697418212890624,0.2305755615234375
21442,-0.1026458740234375,0.96356201171875,0.2266998291015625
21443,-0.1020355224609375,0.9608917236328124,0.2219085693359375
21444,-0.101531982421875,0.961151123046875,0.218597412109375
21445,-0.1022186279296875,0.96368408203125,0.2139892578125
21446,-0.100799560546875,0.9682464599609376,0.209686279296875
21447,-0.0962066650390625,0.9704437255859376,0.2056732177734375
21448,-0.0932464599609375,0.9691162109375,0.2058563232421875
21449,-0.0904998779296875,0.9678802490234376,0.208770751953125
21450,-0.0866546630859375,0.968658447265625,0.2156982421875
21451,-0.081634521484375,0.9710693359375,0.2227935791015625
21452,-0.078857421875,0.97393798828125,0.2286834716796875
21453,-0.0752716064453125,0.9763336181640624,0.230865478515625
21454,-0.07232666015625,0.974456787109375,0.2293548583984375
21455,-0.0702362060546875,0.969879150390625,0.2253570556640625
21456,-0.0680694580078125,0.9659423828125,0.2221832275390625
21457,-0.0685577392578125,0.9608001708984376,0.218109130859375
21458,-0.07257080078125,0.9576416015625,0.2170257568359375
21459,-0.08038330078125,0.9571990966796876,0.2159881591796875
21460,-0.089019775390625,0.9608917236328124,0.21435546875
21461,-0.096649169921875,0.9658355712890624,0.2156982421875
21462,-0.099884033203125,0.973968505859375,0.216705322265625
21463,-0.095184326171875,0.9796295166015624,0.22039794921875
21464,-0.0850372314453125,0.9813232421875,0.2228546142578125
21465,-0.071014404296875,0.9781646728515624,0.2240753173828125
21466,-0.060699462890625,0.9742889404296876,0.222564697265625
21467,-0.054534912109375,0.9706573486328124,0.2190399169921875
21468,-0.0520172119140625,0.9651947021484376,0.2149810791015625
21469,-0.053375244140625,0.9589691162109376,0.213775634765625
21470,-0.0570220947265625,0.9563751220703124,0.2115478515625
21471,-0.06207275390625,0.9602813720703124,0.208953857421875
21472,-0.070037841796875,0.9680023193359376,0.2108306884765625
21473,-0.075286865234375,0.972930908203125,0.2145233154296875
21474,-0.0790863037109375,0.9739227294921876,0.221099853515625
21475,-0.0817413330078125,0.9732818603515624,0.2274322509765625
21476,-0.0834503173828125,0.9724884033203124,0.234710693359375
21477,-0.08575439453125,0.9728546142578124,0.2401885986328125
21478,-0.0865020751953125,0.974090576171875,0.24322509765625
21479,-0.0853118896484375,0.97637939453125,0.2449951171875
21480,-0.0822906494140625,0.972747802734375,0.2417449951171875
21481,-0.0750274658203125,0.96563720703125,0.2362823486328125
21482,-0.0648956298828125,0.9622802734375,0.2326507568359375
21483,-0.0591888427734375,0.96392822265625,0.228057861328125
21484,-0.0544281005859375,0.9646453857421876,0.227294921875
21485,-0.053314208984375,0.9655303955078124,0.22625732421875
21486,-0.0547943115234375,0.968719482421875,0.22589111328125
21487,-0.0595855712890625,0.97027587890625,0.2270965576171875
21488,-0.066009521484375,0.9696197509765624,0.227996826171875
21489,-0.0692596435546875,0.9692230224609376,0.2291259765625
21490,-0.070404052734375,0.9683074951171876,0.2308197021484375
21491,-0.0709991455078125,0.9674530029296876,0.229248046875
21492,-0.073150634765625,0.9660186767578124,0.227386474609375
21493,-0.076141357421875,0.9669036865234376,0.224273681640625
21494,-0.0786895751953125,0.9691925048828124,0.2208099365234375
21495,-0.0803070068359375,0.97088623046875,0.219085693359375
21496,-0.0845794677734375,0.968597412109375,0.2216796875
21497,-0.0894622802734375,0.9660186767578124,0.228179931640625
21498,-0.0928192138671875,0.9633331298828124,0.2354583740234375
21499,-0.0943603515625,0.9599761962890624,0.2426300048828125
21500,-0.0975341796875,0.9575347900390624,0.2468414306640625
21501,-0.100616455078125,0.95855712890625,0.247039794921875
21502,-0.104949951171875,0.95953369140625,0.2472991943359375
21503,-0.106109619140625,0.9568328857421876,0.243682861328125
21504,-0.108489990234375,0.9561920166015624,0.2389373779296875
21505,-0.11260986328125,0.9596099853515624,0.23309326171875
21506,-0.11993408203125,0.963836669921875,0.2264404296875
21507,-0.1285552978515625,0.969329833984375,0.2240447998046875
21508,-0.1385498046875,0.97027587890625,0.222015380859375
21509,-0.148193359375,0.967742919921875,0.2213134765625
21510,-0.1577911376953125,0.96417236328125,0.2235107421875
21511,-0.1653289794921875,0.96112060546875,0.22955322265625
21512,-0.17041015625,0.9595947265625,0.2366943359375
21513,-0.171295166015625,0.9588623046875,0.2425079345703125
21514,-0.1667938232421875,0.958892822265625,0.24554443359375
21515,-0.1587982177734375,0.958892822265625,0.2451171875
21516,-0.150177001953125,0.959686279296875,0.2445526123046875
21517,-0.1441650390625,0.9607086181640624,0.2443084716796875
21518,-0.1389923095703125,0.9597015380859376,0.2413482666015625
21519,-0.1346435546875,0.9608612060546876,0.234466552734375
21520,-0.1314544677734375,0.9656829833984376,0.2283935546875
21521,-0.1280517578125,0.9656982421875,0.223480224609375
21522,-0.12213134765625,0.9645233154296876,0.2197418212890625
21523,-0.1151123046875,0.963134765625,0.2157440185546875
21524,-0.10687255859375,0.9609832763671876,0.21343994140625
21525,-0.100189208984375,0.9612274169921876,0.2150726318359375
21526,-0.0969085693359375,0.9659271240234376,0.216217041015625
21527,-0.09368896484375,0.9715576171875,0.21661376953125
21528,-0.0909576416015625,0.973968505859375,0.217041015625
21529,-0.0864715576171875,0.973236083984375,0.2169342041015625
21530,-0.081756591796875,0.9726409912109376,0.2152862548828125
21531,-0.0799102783203125,0.970306396484375,0.2142486572265625
21532,-0.0785675048828125,0.9705963134765624,0.212554931640625
21533,-0.0757293701171875,0.9732513427734376,0.21234130859375
21534,-0.073486328125,0.974945068359375,0.2126617431640625
21535,-0.0700531005859375,0.9742431640625,0.213623046875
21536,-0.0628662109375,0.9696807861328124,0.2137908935546875
21537,-0.0595550537109375,0.9645843505859376,0.212738037109375
21538,-0.0579833984375,0.9631195068359376,0.2098236083984375
21539,-0.053253173828125,0.966094970703125,0.2093353271484375
21540,-0.0522613525390625,0.9709930419921876,0.2069854736328125
21541,-0.0544281005859375,0.97357177734375,0.204986572265625
21542,-0.0571746826171875,0.9726409912109376,0.202972412109375
21543,-0.06195068359375,0.9712982177734376,0.2021942138671875
21544,-0.07086181640625,0.97119140625,0.20672607421875
21545,-0.0833740234375,0.970062255859375,0.2117919921875
21546,-0.0956268310546875,0.9660186767578124,0.2178802490234375
21547,-0.106658935546875,0.9599456787109376,0.2236175537109375
21548,-0.1172637939453125,0.957366943359375,0.22918701171875
21549,-0.1280670166015625,0.9581756591796876,0.2300872802734375
21550,-0.13671875,0.960205078125,0.2327728271484375
21551,-0.1452484130859375,0.959930419921875,0.2329559326171875
21552,-0.1529693603515625,0.959442138671875,0.2331085205078125
21553,-0.16009521484375,0.9594879150390624,0.2311248779296875
21554,-0.1656494140625,0.9634552001953124,0.231109619140625
21555,-0.1676788330078125,0.9651031494140624,0.231109619140625
21556,-0.1658477783203125,0.964813232421875,0.2311553955078125
21557,-0.1623687744140625,0.965301513671875,0.2298736572265625
21558,-0.15399169921875,0.96624755859375,0.22686767578125
21559,-0.1432647705078125,0.9677886962890624,0.2235260009765625
21560,-0.128570556640625,0.9694061279296876,0.2187957763671875
21561,-0.11395263671875,0.970062255859375,0.2146148681640625
21562,-0.102203369140625,0.96630859375,0.2114715576171875
21563,-0.09490966796875,0.9627838134765624,0.2080230712890625
21564,-0.0899810791015625,0.957611083984375,0.2063140869140625
21565,-0.09002685546875,0.9567108154296876,0.2076873779296875
21566,-0.0956268310546875,0.96014404296875,0.209686279296875
21567,-0.1057281494140625,0.9671783447265624,0.211761474609375
21568,-0.1192474365234375,0.9699249267578124,0.213897705078125
21569,-0.131011962890625,0.96868896484375,0.21392822265625
21570,-0.1385498046875,0.9650726318359376,0.21575927734375
21571,-0.1401519775390625,0.9639892578125,0.2153778076171875
21572,-0.141143798828125,0.9642486572265624,0.2190399169921875
21573,-0.1414031982421875,0.9642181396484376,0.22247314453125
21574,-0.141998291015625,0.96630859375,0.2254791259765625
21575,-0.141815185546875,0.967681884765625,0.225799560546875
21576,-0.1413421630859375,0.96697998046875,0.222930908203125
21577,-0.140716552734375,0.9642333984375,0.2198944091796875
21578,-0.1360931396484375,0.9634552001953124,0.2182159423828125
21579,-0.126617431640625,0.966888427734375,0.2173309326171875
21580,-0.11456298828125,0.972320556640625,0.2185211181640625
21581,-0.1040802001953125,0.9728851318359376,0.220001220703125
21582,-0.0937652587890625,0.966339111328125,0.2179718017578125
21583,-0.0851593017578125,0.959869384765625,0.2151641845703125
21584,-0.0807647705078125,0.9566192626953124,0.211212158203125
21585,-0.0823211669921875,0.95574951171875,0.207763671875
21586,-0.087738037109375,0.95947265625,0.204437255859375
21587,-0.095245361328125,0.9645233154296876,0.20245361328125
21588,-0.10052490234375,0.9697265625,0.201141357421875
21589,-0.1035003662109375,0.971649169921875,0.204803466796875
21590,-0.1048126220703125,0.9749908447265624,0.2081756591796875
21591,-0.10504150390625,0.9791412353515624,0.2117919921875
21592,-0.1049652099609375,0.9794769287109376,0.214111328125
21593,-0.1007080078125,0.9740447998046876,0.215576171875
21594,-0.095855712890625,0.9685516357421876,0.2142181396484375
21595,-0.093994140625,0.9646759033203124,0.2107696533203125
21596,-0.09149169921875,0.96441650390625,0.2088470458984375
21597,-0.0892181396484375,0.967620849609375,0.209136962890625
21598,-0.0869903564453125,0.97265625,0.212677001953125
21599,-0.085113525390625,0.97467041015625,0.214752197265625
21600,-0.084808349609375,0.97357177734375,0.216796875
21601,-0.084747314453125,0.9702911376953124,0.217132568359375
21602,-0.0851287841796875,0.9670867919921876,0.215667724609375
21603,-0.0892181396484375,0.9629058837890624,0.2134246826171875
21604,-0.092254638671875,0.9608001708984376,0.2105712890625
21605,-0.094146728515625,0.9630279541015624,0.20892333984375
21606,-0.095947265625,0.9673309326171876,0.2100830078125
21607,-0.100189208984375,0.970245361328125,0.21240234375
21608,-0.1043701171875,0.968048095703125,0.2143707275390625
21609,-0.1114349365234375,0.9638214111328124,0.214263916015625
21610,-0.117462158203125,0.9644775390625,0.21484375
21611,-0.121734619140625,0.9680328369140624,0.2175445556640625
21612,-0.122100830078125,0.972198486328125,0.2204132080078125
21613,-0.1210174560546875,0.9723968505859376,0.224456787109375
21614,-0.1198577880859375,0.9711456298828124,0.225738525390625
21615,-0.1215057373046875,0.9703369140625,0.221527099609375
21616,-0.123016357421875,0.9683074951171876,0.215057373046875
21617,-0.122161865234375,0.9650726318359376,0.2093658447265625
21618,-0.1207427978515625,0.963409423828125,0.206146240234375
21619,-0.120269775390625,0.9641265869140624,0.2043914794921875
21620,-0.1179351806640625,0.9654083251953124,0.20526123046875
21621,-0.1173248291015625,0.9655609130859376,0.204742431640625
21622,-0.1157379150390625,0.966705322265625,0.2060546875
21623,-0.1138153076171875,0.97021484375,0.20806884765625
21624,-0.112548828125,0.974945068359375,0.209686279296875
21625,-0.112518310546875,0.97869873046875,0.21240234375
21626,-0.1124114990234375,0.977294921875,0.2127532958984375
21627,-0.1127471923828125,0.971221923828125,0.211700439453125
21628,-0.114105224609375,0.9665985107421876,0.21124267578125
21629,-0.1154937744140625,0.9628143310546876,0.2118988037109375
21630,-0.115142822265625,0.960968017578125,0.2133636474609375
21631,-0.1125030517578125,0.9629058837890624,0.217742919921875
21632,-0.1081085205078125,0.9670257568359376,0.221405029296875
21633,-0.1004791259765625,0.9703369140625,0.2207794189453125
21634,-0.08843994140625,0.9693603515625,0.220458984375
21635,-0.0777740478515625,0.968353271484375,0.219757080078125
21636,-0.0711669921875,0.9682769775390624,0.2171783447265625
21637,-0.067840576171875,0.9652557373046876,0.2154541015625
21638,-0.0681915283203125,0.96453857421875,0.213653564453125
21639,-0.0693359375,0.96929931640625,0.21612548828125
21640,-0.072418212890625,0.9734649658203124,0.218780517578125
21641,-0.074432373046875,0.97186279296875,0.22137451171875
21642,-0.07470703125,0.9701995849609376,0.221923828125
21643,-0.0731964111328125,0.973541259765625,0.2193145751953125
21644,-0.070526123046875,0.9773406982421876,0.21697998046875
21645,-0.0653228759765625,0.9784698486328124,0.214599609375
21646,-0.057891845703125,0.97564697265625,0.2119140625
21647,-0.0540618896484375,0.97064208984375,0.20672607421875
21648,-0.05523681640625,0.966400146484375,0.2044525146484375
21649,-0.058135986328125,0.9648895263671876,0.2027587890625
21650,-0.0642547607421875,0.9652252197265624,0.2025299072265625
21651,-0.0713958740234375,0.96746826171875,0.2052459716796875
21652,-0.0786590576171875,0.969451904296875,0.2089691162109375
21653,-0.0854644775390625,0.970611572265625,0.213653564453125
21654,-0.091705322265625,0.971435546875,0.2162017822265625
21655,-0.095306396484375,0.9701690673828124,0.216522216796875
21656,-0.0948944091796875,0.9677581787109376,0.21502685546875
21657,-0.0926513671875,0.9669189453125,0.2145843505859375
21658,-0.0928192138671875,0.967315673828125,0.2155914306640625
21659,-0.0917816162109375,0.9662933349609376,0.21588134765625
21660,-0.0961151123046875,0.96630859375,0.217254638671875
21661,-0.10345458984375,0.96514892578125,0.217864990234375
21662,-0.114471435546875,0.962738037109375,0.21856689453125
21663,-0.12432861328125,0.9581146240234376,0.223175048828125
21664,-0.1311492919921875,0.9560394287109376,0.2269134521484375
21665,-0.13446044921875,0.9616851806640624,0.230865478515625
21666,-0.136199951171875,0.9686431884765624,0.23529052734375
21667,-0.1350555419921875,0.9715576171875,0.235809326171875
21668,-0.13037109375,0.97064208984375,0.234649658203125
21669,-0.1262359619140625,0.970794677734375,0.2310638427734375
21670,-0.12225341796875,0.9712677001953124,0.22625732421875
21671,-0.1182098388671875,0.9653167724609376,0.221771240234375
21672,-0.1127166748046875,0.9580078125,0.21514892578125
21673,-0.1103515625,0.960906982421875,0.2114105224609375
21674,-0.1092529296875,0.9674530029296876,0.21417236328125
21675,-0.1098480224609375,0.970672607421875,0.2176513671875
21676,-0.109222412109375,0.9677276611328124,0.2203826904296875
21677,-0.1068115234375,0.9632415771484376,0.2215423583984375
21678,-0.102630615234375,0.960662841796875,0.2217864990234375
21679,-0.0968017578125,0.9644622802734376,0.222320556640625
21680,-0.09326171875,0.9702911376953124,0.2242889404296875
21681,-0.0912322998046875,0.973724365234375,0.2227325439453125
21682,-0.0891265869140625,0.9730072021484376,0.2195892333984375
21683,-0.0883941650390625,0.97198486328125,0.2154083251953125
21684,-0.0896759033203125,0.97320556640625,0.212799072265625
21685,-0.0915374755859375,0.973358154296875,0.210784912109375
21686,-0.0895233154296875,0.9699249267578124,0.211273193359375
21687,-0.0869598388671875,0.9667205810546876,0.2142486572265625
21688,-0.0838775634765625,0.9635772705078124,0.2158203125
21689,-0.080810546875,0.9609375,0.217254638671875
21690,-0.07794189453125,0.9629669189453124,0.217681884765625
21691,-0.0759124755859375,0.9671783447265624,0.216217041015625
21692,-0.07537841796875,0.970184326171875,0.2147674560546875
21693,-0.074676513671875,0.97100830078125,0.211944580078125
21694,-0.0739593505859375,0.9716644287109376,0.20928955078125
21695,-0.076141357421875,0.9713897705078124,0.210174560546875
21696,-0.0805511474609375,0.9703521728515624,0.211761474609375
21697,-0.08514404296875,0.96923828125,0.21453857421875
21698,-0.0879058837890625,0.9681243896484376,0.21588134765625
21699,-0.0906524658203125,0.9671478271484376,0.216827392578125
21700,-0.092315673828125,0.96710205078125,0.2175750732421875
21701,-0.0935211181640625,0.967376708984375,0.2171173095703125
21702,-0.09521484375,0.9669647216796876,0.2166748046875
21703,-0.098052978515625,0.96905517578125,0.216583251953125
21704,-0.1020050048828125,0.969512939453125,0.216217041015625
21705,-0.104827880859375,0.969024658203125,0.21636962890625
21706,-0.1075897216796875,0.9677276611328124,0.2164764404296875
21707,-0.11163330078125,0.9684600830078124,0.2193756103515625
21708,-0.1143035888671875,0.969024658203125,0.2220611572265625
21709,-0.116790771484375,0.9684295654296876,0.220916748046875
21710,-0.1157073974609375,0.966278076171875,0.2203826904296875
21711,-0.1138153076171875,0.965087890625,0.2201080322265625
21712,-0.1100616455078125,0.9658355712890624,0.220611572265625
21713,-0.107177734375,0.9672088623046876,0.2217864990234375
21714,-0.103118896484375,0.9686279296875,0.2215118408203125
21715,-0.102447509765625,0.9715576171875,0.221527099609375
21716,-0.1031646728515625,0.9695281982421876,0.2213134765625
21717,-0.1034698486328125,0.966033935546875,0.2212371826171875
21718,-0.1042022705078125,0.96514892578125,0.2217559814453125
21719,-0.105010986328125,0.9659576416015624,0.2217254638671875
21720,-0.1048583984375,0.9664306640625,0.2203369140625
21721,-0.101898193359375,0.968841552734375,0.2166748046875
21722,-0.099212646484375,0.9701080322265624,0.212738037109375
21723,-0.09197998046875,0.9708251953125,0.21124267578125
21724,-0.0854034423828125,0.9698944091796876,0.21160888671875
21725,-0.0825042724609375,0.9706573486328124,0.2145233154296875
21726,-0.08221435546875,0.9700775146484376,0.2153167724609375
21727,-0.0847320556640625,0.96942138671875,0.2168731689453125
21728,-0.0868377685546875,0.9683380126953124,0.2194671630859375
21729,-0.0880279541015625,0.969268798828125,0.21966552734375
21730,-0.0881805419921875,0.970672607421875,0.2205047607421875
21731,-0.088104248046875,0.970794677734375,0.219451904296875
21732,-0.0870361328125,0.967071533203125,0.2183074951171875
21733,-0.0855560302734375,0.9636077880859376,0.2182159423828125
21734,-0.0856170654296875,0.9638214111328124,0.2185821533203125
21735,-0.0876922607421875,0.96502685546875,0.2195587158203125
21736,-0.0910491943359375,0.9667816162109376,0.2208709716796875
21737,-0.0939483642578125,0.9682464599609376,0.220001220703125
21738,-0.0941009521484375,0.96978759765625,0.2184600830078125
21739,-0.0953216552734375,0.9721832275390624,0.216400146484375
21740,-0.0968170166015625,0.9722442626953124,0.2159423828125
21741,-0.09564208984375,0.97076416015625,0.21514892578125
21742,-0.0946197509765625,0.9683837890625,0.2120208740234375
21743,-0.094573974609375,0.9675445556640624,0.210784912109375
21744,-0.0959930419921875,0.9687957763671876,0.212615966796875
21745,-0.09832763671875,0.967071533203125,0.213775634765625
21746,-0.1012725830078125,0.9647979736328124,0.214691162109375
21747,-0.1033172607421875,0.964691162109375,0.21539306640625
21748,-0.1037750244140625,0.966705322265625,0.217376708984375
21749,-0.1021881103515625,0.9674224853515624,0.2176971435546875
21750,-0.1020050048828125,0.9673004150390624,0.216461181640625
21751,-0.1018524169921875,0.969573974609375,0.214324951171875
21752,-0.1004638671875,0.9718170166015624,0.212677001953125
21753,-0.1002044677734375,0.9705657958984376,0.2108154296875
21754,-0.098876953125,0.9681396484375,0.2109222412109375
21755,-0.097320556640625,0.9650726318359376,0.2103729248046875
21756,-0.0975799560546875,0.96453857421875,0.2106475830078125
21757,-0.10015869140625,0.965118408203125,0.2128448486328125
21758,-0.1041412353515625,0.9667510986328124,0.2153167724609375
21759,-0.106964111328125,0.97039794921875,0.2187347412109375
21760,-0.10955810546875,0.972259521484375,0.2198944091796875
21761,-0.10968017578125,0.973724365234375,0.2190399169921875
21762,-0.108734130859375,0.97320556640625,0.21722412109375
21763,-0.1045684814453125,0.971771240234375,0.2140960693359375
21764,-0.09857177734375,0.9700775146484376,0.2115631103515625
21765,-0.090423583984375,0.968231201171875,0.2099761962890625
21766,-0.0837860107421875,0.966522216796875,0.2071533203125
21767,-0.078857421875,0.9656219482421876,0.2056121826171875
21768,-0.0783233642578125,0.963653564453125,0.2051239013671875
21769,-0.082061767578125,0.965362548828125,0.206817626953125
21770,-0.086578369140625,0.96783447265625,0.211273193359375
21771,-0.0915679931640625,0.9680023193359376,0.215240478515625
21772,-0.0937957763671875,0.9687042236328124,0.2186737060546875
21773,-0.094085693359375,0.9718017578125,0.22003173828125
21774,-0.0912017822265625,0.9756011962890624,0.2193450927734375
21775,-0.0872344970703125,0.9761505126953124,0.2140350341796875
21776,-0.081390380859375,0.9755859375,0.2090301513671875
21777,-0.0760345458984375,0.973541259765625,0.2059783935546875
21778,-0.0724334716796875,0.9713897705078124,0.2054443359375
21779,-0.070465087890625,0.969635009765625,0.204376220703125
21780,-0.0700836181640625,0.9674835205078124,0.2068939208984375
21781,-0.070709228515625,0.96575927734375,0.2082366943359375
21782,-0.07354736328125,0.965911865234375,0.2103118896484375
21783,-0.077392578125,0.9657440185546876,0.2116241455078125
21784,-0.0824127197265625,0.9650421142578124,0.2129974365234375
21785,-0.089569091796875,0.968231201171875,0.2151031494140625
21786,-0.097442626953125,0.9693145751953124,0.218505859375
21787,-0.1052093505859375,0.9690704345703124,0.2220916748046875
21788,-0.1120147705078125,0.9688262939453124,0.2241973876953125
21789,-0.117431640625,0.96875,0.2247161865234375
21790,-0.1217803955078125,0.9673614501953124,0.2239837646484375
21791,-0.1222686767578125,0.9675445556640624,0.22369384765625
21792,-0.1205291748046875,0.9683685302734376,0.2245635986328125
21793,-0.121429443359375,0.9679718017578124,0.225433349609375
21794,-0.12274169921875,0.964263916015625,0.2245635986328125
21795,-0.1253204345703125,0.957489013671875,0.224395751953125
21796,-0.1254730224609375,0.9557952880859376,0.224853515625
21797,-0.12298583984375,0.959259033203125,0.2248687744140625
21798,-0.1172637939453125,0.9650115966796876,0.2223358154296875
21799,-0.1131744384765625,0.968170166015625,0.2205963134765625
21800,-0.113555908203125,0.9708251953125,0.2177734375
21801,-0.117950439453125,0.9711456298828124,0.2150726318359375
21802,-0.1236572265625,0.96697998046875,0.2126312255859375
21803,-0.1291046142578125,0.966156005859375,0.21044921875
21804,-0.13421630859375,0.96697998046875,0.213470458984375
21805,-0.1369476318359375,0.9666290283203124,0.2193145751953125
21806,-0.13714599609375,0.9669342041015624,0.225006103515625
21807,-0.136077880859375,0.967681884765625,0.2313079833984375
21808,-0.1346893310546875,0.9669952392578124,0.2327728271484375
21809,-0.132781982421875,0.965087890625,0.2287445068359375
21810,-0.132049560546875,0.9649810791015624,0.2201995849609375
21811,-0.1290435791015625,0.9639739990234376,0.211456298828125
21812,-0.121734619140625,0.96343994140625,0.2059173583984375
21813,-0.114166259765625,0.9690399169921876,0.2051239013671875
21814,-0.1064453125,0.9748077392578124,0.2104034423828125
21815,-0.1002655029296875,0.9734954833984376,0.2192230224609375
21816,-0.0944976806640625,0.969024658203125,0.22552490234375
21817,-0.0890350341796875,0.96429443359375,0.230682373046875
21818,-0.082305908203125,0.9635162353515624,0.23419189453125
21819,-0.0699615478515625,0.9677581787109376,0.23046875
21820,-0.0530853271484375,0.96966552734375,0.2248687744140625
21821,-0.0328216552734375,0.9695587158203124,0.2150115966796875
21822,-0.0193328857421875,0.96905517578125,0.204925537109375
21823,-0.0168609619140625,0.9689483642578124,0.197479248046875
21824,-0.0224151611328125,0.965179443359375,0.19207763671875
21825,-0.0323638916015625,0.9605712890625,0.193634033203125
21826,-0.0459442138671875,0.9626007080078124,0.2007598876953125
21827,-0.0627593994140625,0.969879150390625,0.2114105224609375
21828,-0.079132080078125,0.9726409912109376,0.220703125
21829,-0.09222412109375,0.9694671630859376,0.2238006591796875
21830,-0.1044921875,0.962860107421875,0.2239837646484375
21831,-0.1168670654296875,0.9594879150390624,0.223785400390625
21832,-0.1306610107421875,0.9585723876953124,0.2217559814453125
21833,-0.1429290771484375,0.9596099853515624,0.2124176025390625
21834,-0.1550750732421875,0.962432861328125,0.208953857421875
21835,-0.1674346923828125,0.96307373046875,0.2108917236328125
21836,-0.171600341796875,0.963134765625,0.212158203125
21837,-0.168670654296875,0.9633026123046876,0.2173004150390625
21838,-0.161407470703125,0.9631805419921876,0.2217559814453125
21839,-0.1527099609375,0.9631500244140624,0.224853515625
21840,-0.1429290771484375,0.9663848876953124,0.2261505126953125
21841,-0.13299560546875,0.9701690673828124,0.2246246337890625
21842,-0.1246490478515625,0.970733642578125,0.22265625
21843,-0.11871337890625,0.9715118408203124,0.2216339111328125
21844,-0.1111602783203125,0.9738311767578124,0.217041015625
21845,-0.1026153564453125,0.97491455078125,0.2121429443359375
21846,-0.093963623046875,0.974822998046875,0.2105255126953125
21847,-0.0865936279296875,0.9715728759765624,0.212615966796875
21848,-0.082061767578125,0.969268798828125,0.2157745361328125
21849,-0.078094482421875,0.9704132080078124,0.223114013671875
21850,-0.0771484375,0.9717864990234376,0.2259063720703125
21851,-0.07855224609375,0.9698944091796876,0.2256011962890625
21852,-0.080413818359375,0.9671630859375,0.2222442626953125
21853,-0.0850067138671875,0.9673919677734376,0.2175445556640625
21854,-0.092193603515625,0.97021484375,0.2144927978515625
21855,-0.1002197265625,0.97100830078125,0.212493896484375
21856,-0.1044464111328125,0.968109130859375,0.2137603759765625
21857,-0.1043701171875,0.965667724609375,0.2211151123046875
21858,-0.1036834716796875,0.96405029296875,0.2308349609375
21859,-0.100433349609375,0.962188720703125,0.238494873046875
21860,-0.0972747802734375,0.9588165283203124,0.24407958984375
21861,-0.096527099609375,0.958160400390625,0.244781494140625
21862,-0.09539794921875,0.9612884521484376,0.2418212890625
21863,-0.0972137451171875,0.9683074951171876,0.2341156005859375
21864,-0.1013641357421875,0.9762725830078124,0.2248992919921875
21865,-0.1063385009765625,0.980255126953125,0.215606689453125
21866,-0.1105804443359375,0.9794769287109376,0.2105560302734375
21867,-0.1137847900390625,0.9740447998046876,0.21026611328125
21868,-0.11077880859375,0.9659271240234376,0.2135772705078125
21869,-0.10369873046875,0.957305908203125,0.2199554443359375
21870,-0.096893310546875,0.953460693359375,0.2274322509765625
21871,-0.0941619873046875,0.9540252685546876,0.233917236328125
21872,-0.093505859375,0.956787109375,0.23956298828125
21873,-0.0933380126953125,0.9599151611328124,0.240264892578125
21874,-0.0965576171875,0.9645538330078124,0.2387542724609375
21875,-0.1066131591796875,0.9680328369140624,0.23199462890625
21876,-0.1211700439453125,0.9653167724609376,0.2210845947265625
21877,-0.134124755859375,0.957366943359375,0.2082061767578125
21878,-0.1395721435546875,0.951934814453125,0.1946258544921875
21879,-0.1428070068359375,0.9567718505859376,0.1876068115234375
21880,-0.152313232421875,0.96502685546875,0.18817138671875
21881,-0.1627197265625,0.9698944091796876,0.19256591796875
21882,-0.16815185546875,0.96893310546875,0.2032623291015625
21883,-0.16900634765625,0.9662628173828124,0.21881103515625
21884,-0.1722259521484375,0.9651641845703124,0.234161376953125
21885,-0.17669677734375,0.9660797119140624,0.250518798828125
21886,-0.1797943115234375,0.9670257568359376,0.263824462890625
21887,-0.179901123046875,0.9621124267578124,0.2686614990234375
21888,-0.1803436279296875,0.95367431640625,0.2657470703125
21889,-0.1832122802734375,0.945770263671875,0.2576904296875
21890,-0.1837310791015625,0.944732666015625,0.2464141845703125
21891,-0.17864990234375,0.9473419189453124,0.2342376708984375
21892,-0.168365478515625,0.9500885009765624,0.2244415283203125
21893,-0.1544342041015625,0.95208740234375,0.217620849609375
21894,-0.139404296875,0.9539031982421876,0.2181549072265625
21895,-0.1273345947265625,0.9554901123046876,0.222412109375
21896,-0.120269775390625,0.9571380615234376,0.2274169921875
21897,-0.1189727783203125,0.959564208984375,0.23138427734375
21898,-0.12078857421875,0.965301513671875,0.2316131591796875
21899,-0.119384765625,0.97357177734375,0.2332000732421875
21900,-0.1132659912109375,0.98272705078125,0.2318267822265625
21901,-0.107330322265625,0.9841461181640624,0.228912353515625
21902,-0.1020355224609375,0.9685821533203124,0.219879150390625
21903,-0.09136962890625,0.950469970703125,0.2126617431640625
21904,-0.0828857421875,0.9472198486328124,0.2072296142578125
21905,-0.080780029296875,0.9578094482421876,0.2056121826171875
21906,-0.0817718505859375,0.967620849609375,0.208343505859375
21907,-0.0842742919921875,0.966217041015625,0.2146759033203125
21908,-0.0927734375,0.956329345703125,0.2250518798828125
21909,-0.1079559326171875,0.9522247314453124,0.2369384765625
21910,-0.12774658203125,0.9615631103515624,0.2457427978515625
21911,-0.1478271484375,0.9712982177734376,0.25140380859375
21912,-0.157745361328125,0.97271728515625,0.2533111572265625
21913,-0.15753173828125,0.9688873291015624,0.2522735595703125
21914,-0.1533050537109375,0.9643402099609376,0.2462921142578125
21915,-0.1492462158203125,0.96484375,0.237030029296875
21916,-0.14483642578125,0.969512939453125,0.229644775390625
21917,-0.13836669921875,0.9764556884765624,0.2223052978515625
21918,-0.12744140625,0.98101806640625,0.2142791748046875
21919,-0.11761474609375,0.9815216064453124,0.20623779296875
21920,-0.1072845458984375,0.9698333740234376,0.1956634521484375
21921,-0.0939483642578125,0.9541778564453124,0.1865997314453125
21922,-0.0812225341796875,0.948486328125,0.182861328125
21923,-0.0788116455078125,0.95758056640625,0.1797637939453125
21924,-0.084869384765625,0.966094970703125,0.183319091796875
21925,-0.095367431640625,0.9632568359375,0.1976776123046875
21926,-0.1044921875,0.955230712890625,0.2151336669921875
21927,-0.1126251220703125,0.953125,0.2338714599609375
21928,-0.1222076416015625,0.9592742919921876,0.247314453125
21929,-0.1338348388671875,0.9644622802734376,0.2558441162109375
21930,-0.1407012939453125,0.9646148681640624,0.2526092529296875
21931,-0.140472412109375,0.96514892578125,0.243194580078125
21932,-0.1337890625,0.9705657958984376,0.2297515869140625
21933,-0.126922607421875,0.977630615234375,0.21600341796875
21934,-0.1168975830078125,0.9801788330078124,0.2067413330078125
21935,-0.103302001953125,0.9770660400390624,0.198486328125
21936,-0.0865478515625,0.97357177734375,0.1948699951171875
21937,-0.0714263916015625,0.973175048828125,0.1940155029296875
21938,-0.0604705810546875,0.9732513427734376,0.1958465576171875
21939,-0.0543365478515625,0.974273681640625,0.196441650390625
21940,-0.05255126953125,0.975677490234375,0.1951141357421875
21941,-0.057281494140625,0.97686767578125,0.1936187744140625
21942,-0.06085205078125,0.9706878662109376,0.1898956298828125
21943,-0.066070556640625,0.962799072265625,0.1899566650390625
21944,-0.07830810546875,0.955596923828125,0.19586181640625
21945,-0.097137451171875,0.9575653076171876,0.203643798828125
